Attitude Estimation Problem
timestamp,gyr_x,gyr_y,gyr_z,acc_x,acc_y,acc_z,mag_x,mag_y,mag_z
0.016000,-0.000004,-0.000001,0.000008,-0.077630,-0.074152,8.325208,17.029713,0.965477,34.470192
0.020000,-0.000182,-0.000029,0.000030,-0.034336,-0.026811,8.335244,16.962962,1.278512,34.803206
0.024000,0.000137,0.000139,-0.000174,-0.069101,-0.012858,8.317587,17.142659,0.960364,34.655459
0.028000,0.000058,-0.000130,0.000208,-0.073019,-0.098909,8.354359,17.071281,0.944428,34.601311
0.032000,0.000707,0.000152,-0.000562,-0.041983,-0.014341,8.298189,16.972050,1.029812,34.575524
0.038000,0.005787,0.000651,-0.000812,-0.032125,-0.061484,8.342462,17.173113,0.862794,34.673011
0.042000,0.005527,0.000537,-0.001223,-0.094772,-0.033109,8.342068,16.882268,0.872620,34.434313
0.046000,0.003431,0.000402,-0.001248,-0.062343,-0.049587,8.310772,16.850281,1.179167,34.349532
0.052000,0.001239,-0.000067,0.000078,-0.073239,-0.071899,8.288849,16.922179,1.225519,34.426289
0.054000,-0.000544,-0.000053,0.000076,-0.044176,-0.038543,8.312066,17.020595,0.788618,34.696683
0.060000,-0.000929,0.000071,0.000599,-0.054534,-0.067955,8.332827,17.219962,1.125791,34.639778
0.064000,-0.000059,0.000015,0.000275,-0.074209,-0.080415,8.347422,17.071014,0.882383,34.379210
0.068000,0.000101,0.000033,0.000147,-0.062843,-0.021822,8.327142,17.305343,1.130766,34.402649
0.074000,-0.000625,0.000517,0.000562,-0.080244,-0.037876,8.338928,17.064446,0.925486,34.318897
0.076000,-0.000204,0.000365,0.000529,-0.046925,-0.038616,8.313045,17.090952,0.903198,34.352766
0.082000,-0.000809,0.001167,0.001227,-0.064188,-0.066107,8.300181,16.771604,0.681779,34.464804
0.086000,-0.001527,0.001196,0.001367,-0.066977,-0.035753,8.330994,17.040014,0.814130,34.661817
0.090000,-0.001224,0.001341,0.001285,-0.088850,-0.094113,8.359777,17.043598,1.093652,34.501307
0.094000,-0.002175,0.001601,0.001553,-0.063583,-0.075865,8.320683,16.904367,1.004108,34.293401
0.100000,-0.003044,0.002257,0.002353,-0.091625,-0.034216,8.318282,17.159636,0.801003,34.713731
0.104000,-0.002524,0.002068,0.003091,-0.034334,-0.061953,8.355033,16.990230,1.185706,34.320699
0.108000,-0.002871,0.002408,0.002923,-0.056812,-0.045884,8.340708,16.924534,1.053805,34.762659
0.108000,-0.000080,0.000023,0.000044,-0.049420,-0.056073,8.321513,17.376192,0.988385,34.891209
0.112000,-0.003890,0.003000,0.003380,-0.023466,-0.081506,8.326295,16.998902,1.191339,34.355860
0.118000,-0.005520,0.005243,0.004859,-0.061965,-0.055288,8.317548,17.134957,0.527428,34.321674
0.120000,-0.001404,0.001322,0.001821,-0.055963,-0.066852,8.294309,17.143736,0.725413,34.620105
0.128000,-0.005049,0.004339,0.004382,-0.062262,-0.085807,8.291235,17.227884,0.880696,34.351489
0.132000,-0.001926,0.001666,0.001664,-0.059749,-0.053840,8.336828,16.961674,0.790838,34.518784
0.134000,-0.001252,0.000891,0.001447,-0.051103,-0.102688,8.298764,17.072580,0.917687,34.860924
0.140000,-0.002315,0.002504,0.002701,-0.022830,-0.084911,8.338525,16.913974,1.244211,34.337930
0.144000,-0.001056,0.001195,0.000572,-0.076517,-0.062220,8.313439,17.066428,1.203906,34.756580
0.148000,-0.001234,0.001092,0.000913,-0.051378,-0.061108,8.317168,16.971295,1.082693,34.619838
0.154000,-0.000977,0.001204,0.000867,-0.083916,-0.058497,8.301754,16.948081,1.094236,34.897598
0.158000,-0.000411,0.000156,-0.000098,-0.054126,-0.010947,8.353433,17.142958,1.084640,34.668284
0.162000,-0.000106,-0.000153,0.000662,-0.048256,-0.065637,8.287114,16.770638,1.064139,34.342896
0.166000,0.000039,0.000015,-0.000498,-0.089404,-0.038041,8.310283,16.938454,1.392031,34.489989
0.170000,-0.000114,-0.000055,0.000363,-0.076840,-0.067250,8.304793,16.909510,1.197541,34.356202
0.174000,0.000165,-0.000119,-0.000069,-0.087471,-0.064921,8.308231,16.965933,1.216161,34.547005
0.180000,0.000239,-0.000515,0.000407,-0.077658,-0.079644,8.336741,16.751354,1.080344,34.462347
0.184000,0.001240,-0.003347,-0.001365,-0.067284,-0.067451,8.338245,17.349328,0.859025,34.741018
0.188000,0.001674,-0.004731,-0.002894,-0.065309,-0.069404,8.335694,17.395403,0.812303,34.500943
0.192000,0.002430,-0.006627,-0.003477,-0.048749,-0.066675,8.327833,17.129074,0.811653,34.589780
0.196000,0.002730,-0.008088,-0.005065,-0.077716,-0.080972,8.341717,17.011968,0.930340,34.546572
0.200000,0.003212,-0.010649,-0.006670,-0.052622,-0.054325,8.331871,17.070475,1.010039,34.421036
0.206000,0.007197,-0.017951,-0.011491,-0.060056,-0.049222,8.345064,16.952234,0.957402,34.526522
0.210000,0.005231,-0.014592,-0.008855,-0.042125,-0.065118,8.354176,16.976618,1.043998,34.184507
0.214000,0.006316,-0.015706,-0.010574,-0.055365,-0.050120,8.331896,16.922564,0.929266,34.368100
0.220000,0.010385,-0.026954,-0.016906,-0.054085,-0.077357,8.340350,17.380828,0.989428,34.565208
0.222000,0.003520,-0.009697,-0.006244,-0.001367,-0.069959,8.327639,16.975168,0.983671,34.296351
0.228000,0.012339,-0.032159,-0.020933,-0.066657,-0.071826,8.357350,17.039910,0.809338,34.474788
0.234000,0.012678,-0.032980,-0.022246,-0.070120,-0.071118,8.294196,16.583916,0.775818,34.807959
0.238000,0.008577,-0.021864,-0.013191,-0.071093,-0.095717,8.338946,17.240045,1.249351,34.791751
0.242000,0.008652,-0.021845,-0.013259,0.001371,-0.068372,8.292596,17.212682,0.910083,34.323039
0.244000,0.004036,-0.010873,-0.006718,-0.036569,-0.075499,8.352405,17.305434,1.010796,35.002598
0.250000,0.012043,-0.032293,-0.020875,-0.059318,-0.073176,8.322616,17.018547,1.381539,34.489646
0.252000,0.003761,-0.010411,-0.006384,-0.038002,-0.064896,8.316187,17.347694,1.329283,34.322049
0.260000,0.013771,-0.035345,-0.023170,-0.056103,-0.085492,8.334208,17.001647,0.806893,34.279697
0.264000,0.005493,-0.015332,-0.008955,-0.087607,-0.068616,8.341514,17.225683,0.969395,34.525670
0.266000,0.002819,-0.006820,-0.004588,-0.045238,-0.047664,8.324890,17.205256,0.650141,34.763006
0.272000,0.007187,-0.018923,-0.011600,-0.027126,-0.040680,8.335196,17.033407,1.112336,34.633362
0.276000,0.004528,-0.009995,-0.006427,-0.031675,-0.044042,8.317338,17.366104,0.990628,34.103947
0.280000,0.003351,-0.009043,-0.005394,-0.077172,-0.050586,8.337211,17.114250,1.050324,34.313187
0.286000,0.003701,-0.009501,-0.005819,-0.027764,-0.077818,8.307921,17.132954,0.943015,34.253085
0.290000,0.001853,-0.004895,-0.003123,-0.040313,-0.060309,8.288174,17.234571,0.904436,34.433139
0.294000,0.001245,-0.002293,-0.002294,-0.041946,-0.096185,8.307138,17.016397,1.251395,34.503384
0.298000,0.000753,-0.000988,-0.000582,-0.022220,-0.022011,8.301685,17.120891,0.928621,34.600369
0.300000,0.000104,-0.000353,-0.000196,-0.056105,-0.057943,8.362115,17.365656,1.138360,34.643499
0.306000,-0.000523,0.000775,0.000550,-0.059428,-0.068435,8.357427,17.222390,0.747528,34.342435
0.312000,0.000353,-0.000106,-0.000384,-0.057044,-0.044246,8.296413,17.066116,0.873670,34.306128
0.316000,0.000164,-0.000214,0.000053,-0.052932,-0.092267,8.304916,16.744952,0.754117,34.461781
0.320000,0.000043,0.000318,-0.000080,-0.032566,-0.059808,8.319764,17.092226,0.860758,34.526425
0.324000,-0.000043,0.000104,0.001280,-0.064589,-0.063251,8.332270,17.022014,1.223562,34.480087
0.328000,-0.000004,0.000236,0.003245,-0.029679,-0.111736,8.309426,17.239726,1.052386,34.241125
0.332000,-0.000112,0.000350,0.003737,-0.046300,-0.060799,8.334332,17.088087,0.774921,34.490430
0.338000,-0.000614,0.000762,0.008605,-0.044138,-0.064972,8.315575,16.961931,1.085890,34.252701
0.342000,-0.000200,0.000773,0.007134,-0.054507,-0.035666,8.311438,17.108244,1.122078,34.686219
0.346000,-0.000156,0.000669,0.007354,-0.050845,-0.055136,8.357662,16.958130,1.014699,34.546887
0.350000,-0.000402,0.001009,0.009066,-0.055668,-0.039512,8.351040,17.403314,0.725224,34.335950
0.354000,-0.000443,0.000888,0.010732,-0.050926,-0.063108,8.319563,17.645474,0.957207,34.147228
0.360000,-0.000260,0.001762,0.015841,-0.054854,-0.041641,8.330857,16.992783,0.475270,34.558067
0.364000,-0.000486,0.001326,0.011683,-0.044992,-0.081571,8.306690,17.260902,0.832220,34.421050
0.368000,-0.000236,0.001164,0.012341,-0.006553,-0.062474,8.310576,17.282735,0.669800,34.257206
0.372000,-0.000683,0.001417,0.012295,-0.020963,-0.053231,8.337857,17.060697,0.861110,34.455298
0.376000,-0.000344,0.001530,0.012900,-0.052653,-0.065351,8.322779,16.861026,1.046412,34.483264
0.382000,-0.001171,0.002256,0.022954,-0.077826,-0.060738,8.332168,17.210083,1.042003,34.551992
0.386000,-0.000524,0.001861,0.016343,-0.012691,-0.057247,8.279132,16.825454,1.097112,34.448554
0.390000,-0.000963,0.001859,0.017050,-0.051959,-0.003774,8.343669,17.071819,1.202870,34.373820
0.394000,-0.000485,0.001884,0.018123,-0.066477,-0.047111,8.311237,17.364047,1.277900,34.657580
0.398000,-0.000483,0.002235,0.019366,-0.077497,-0.066070,8.328045,16.914586,0.577028,34.720547
0.404000,-0.001350,0.003225,0.032559,-0.088055,-0.082265,8.326408,17.124662,0.852251,34.739018
0.408000,-0.000333,0.002467,0.022301,-0.058618,-0.051142,8.301707,16.936965,0.912544,34.614218
0.412000,-0.001021,0.002207,0.022387,-0.036060,-0.083006,8.359324,16.888195,0.971502,34.723077
0.416000,-0.000604,0.002760,0.024116,-0.085149,-0.081187,8.334616,17.143126,1.231190,34.731833
0.420000,-0.000938,0.002768,0.026305,-0.017086,-0.052833,8.337550,17.103670,0.538764,34.300595
0.424000,-0.000831,0.002377,0.022570,-0.050369,-0.079909,8.316317,17.249003,0.688639,34.450854
0.428000,-0.000989,0.002610,0.020706,-0.075245,-0.085029,8.334301,17.166882,1.268880,34.403191
0.434000,-0.001680,0.004164,0.035937,-0.073595,-0.052856,8.299950,16.977270,0.972977,34.581867
0.438000,-0.001068,0.002281,0.018970,-0.045048,-0.069187,8.354564,17.071279,1.183800,34.360464
0.442000,-0.001164,0.002219,0.016153,-0.044572,-0.034453,8.310964,17.123898,1.066170,34.437475
0.446000,-0.001001,0.002265,0.018747,-0.050043,-0.079186,8.317861,17.262286,1.007690,34.666715
0.450000,-0.000845,0.002059,0.017712,-0.056527,-0.074065,8.301691,17.137698,1.050199,34.393046
0.456000,-0.001538,0.002939,0.022270,-0.079841,-0.106660,8.304901,16.978469,1.211844,34.637518
0.460000,-0.000825,0.001540,0.014662,-0.038736,-0.091740,8.298614,16.902759,1.009693,34.057868
0.464000,-0.000649,0.001403,0.013785,-0.015324,-0.072361,8.332675,16.989128,1.158979,34.491177
0.470000,-0.001050,0.002363,0.020278,-0.038564,-0.046201,8.295505,17.122167,0.391190,34.439884
0.474000,-0.000452,0.001377,0.013675,-0.056219,-0.092203,8.375530,17.164490,1.060975,34.700950
0.478000,-0.000257,0.001340,0.013070,-0.083763,-0.080709,8.305219,17.058684,0.938499,34.258995
0.482000,-0.000863,0.001118,0.011063,-0.081820,-0.032333,8.375048,17.059675,0.726503,34.159713
0.486000,-0.000254,0.000970,0.011183,-0.061266,-0.086240,8.281096,16.889925,1.259419,34.463656
0.492000,-0.000217,0.001543,0.013768,-0.056646,-0.065998,8.313069,17.141196,0.868880,34.170925
0.496000,-0.000229,0.000761,0.008426,-0.047284,-0.051654,8.332716,17.279116,0.548734,34.409051
0.500000,-0.000348,0.000856,0.007824,-0.058151,-0.081846,8.339628,17.088156,1.011056,34.376037
0.504000,-0.000054,0.000617,0.005938,-0.051543,-0.041719,8.342133,16.744528,0.811921,34.371782
0.508000,-0.000170,0.000587,0.004526,-0.080483,-0.088553,8.310967,16.949621,1.152835,34.282265
0.514000,-0.000030,0.000673,0.004811,-0.073133,-0.044401,8.333286,17.156485,0.996132,34.701150
0.516000,-0.000299,-0.000099,0.001044,-0.029665,-0.051644,8.330409,17.072873,1.117951,34.482925
0.522000,0.000091,0.000062,0.000291,-0.027638,-0.050163,8.327575,17.182209,0.675986,34.007824
0.528000,-0.000111,-0.000315,-0.001408,-0.021966,-0.057314,8.320065,17.171298,1.048700,34.607690
0.530000,0.000027,0.000074,-0.000334,-0.068713,-0.045458,8.351146,16.997425,1.252676,34.427485
0.534000,-0.000097,-0.000082,-0.000074,-0.052835,-0.033261,8.286478,17.179657,1.080245,34.847200
0.538000,-0.000144,0.000208,0.000387,-0.052940,-0.060444,8.311542,17.037471,0.839816,34.227461
0.544000,-0.000187,0.000021,0.000293,-0.003752,-0.060975,8.317980,17.397626,1.046815,34.603371
0.548000,-0.000234,0.000530,0.000045,-0.051313,-0.100031,8.310880,17.698940,1.028226,34.265219
0.552000,-0.000451,0.000507,-0.000239,-0.032026,-0.072343,8.309488,17.060680,0.777762,34.439887
0.556000,-0.000247,0.000287,0.000401,-0.025455,-0.032643,8.336627,17.020827,0.852412,34.247747
0.560000,-0.000859,0.000541,-0.000072,-0.061056,-0.064525,8.309987,17.405119,1.022972,34.472772
0.564000,-0.000634,0.000372,-0.000742,-0.071949,-0.080775,8.313739,17.244228,1.056133,34.569349
0.570000,-0.001199,0.000955,-0.001448,-0.072784,-0.091285,8.330626,17.230106,0.991124,34.645423
0.576000,-0.001644,0.000900,-0.002684,-0.047217,-0.025510,8.312725,17.243101,0.996645,34.473904
0.578000,-0.000929,0.000451,-0.001566,-0.045989,-0.053529,8.321084,17.392793,0.873216,34.591782
0.582000,-0.000924,0.000835,-0.002323,-0.036976,-0.044233,8.332804,17.177582,0.847894,34.360816
0.588000,-0.002042,0.001153,-0.005575,-0.057177,-0.067140,8.298622,17.029496,0.870616,34.235612
0.592000,-0.001169,0.001106,-0.003769,-0.068308,-0.072511,8.303538,16.971993,1.016843,34.760498
0.596000,-0.001644,0.000982,-0.003419,-0.043218,-0.035892,8.307892,17.204173,0.464762,34.640226
0.602000,-0.002063,0.001979,-0.006456,-0.046439,-0.080938,8.320054,16.989540,1.053044,34.514093
0.606000,-0.001760,0.001418,-0.004661,-0.066120,-0.048004,8.312515,17.059741,0.946162,34.512596
0.610000,-0.001948,0.000905,-0.004275,-0.031829,-0.065158,8.313104,17.355739,0.962115,34.726116
0.614000,-0.002563,0.001278,-0.004626,-0.077541,-0.055183,8.344254,17.277623,1.094390,34.172871
0.620000,-0.003650,0.001395,-0.007951,-0.046804,-0.015263,8.355033,17.311452,0.877719,34.655070
0.622000,-0.001319,0.000523,-0.002089,-0.058533,-0.066861,8.335674,16.908886,0.737610,34.897982
0.630000,-0.004652,0.002884,-0.009823,-0.069323,-0.037085,8.333494,16.911460,1.186769,34.540241
0.634000,-0.002629,0.001679,-0.005633,-0.047309,-0.046836,8.360942,17.014641,0.957367,34.266885
0.636000,-0.001714,0.000653,-0.002006,-0.049055,-0.063022,8.356625,17.092832,0.757328,34.441414
0.642000,-0.004161,0.003077,-0.009564,-0.033094,-0.067351,8.326308,17.273291,1.014994,34.232273
0.644000,-0.001799,0.000932,-0.003479,-0.048693,-0.053639,8.298848,17.258938,0.964668,34.413432
0.648000,-0.002590,0.001643,-0.005805,-0.083789,-0.078912,8.306750,17.238505,0.933886,34.293433
0.656000,-0.007207,0.003608,-0.013916,-0.065789,-0.048457,8.322797,17.450095,0.962752,34.502598
0.658000,-0.002057,0.000855,-0.003663,-0.048872,-0.086008,8.316895,17.015936,1.193398,34.417217
0.664000,-0.004763,0.003576,-0.011399,-0.041109,-0.049480,8.311593,16.795802,0.835468,34.774207
0.666000,-0.001937,0.001474,-0.003756,-0.049738,-0.017201,8.325849,17.253557,0.917092,34.783266
0.670000,-0.003576,0.001900,-0.008563,-0.067038,-0.065160,8.328062,17.237047,0.914975,34.486877
0.674000,-0.004161,0.002282,-0.008288,-0.056183,-0.062424,8.297098,17.156060,0.806080,34.519875
0.680000,-0.005770,0.002776,-0.013394,-0.072638,-0.064991,8.322871,17.151618,0.641490,34.482744
0.686000,-0.006438,0.003935,-0.014325,-0.064775,-0.065760,8.327434,17.033205,1.164676,34.164153
0.688000,-0.002706,0.001502,-0.004097,-0.035473,-0.064280,8.334252,17.017873,0.873725,34.704580
0.692000,-0.004174,0.002237,-0.009797,-0.064401,-0.050879,8.333780,17.082644,1.312683,34.647361
0.698000,-0.006762,0.003526,-0.013990,-0.036138,-0.048253,8.338076,17.011468,1.012870,34.451831
0.702000,-0.004589,0.002934,-0.009797,-0.055677,-0.057849,8.347649,17.255635,0.710110,34.361567
0.706000,-0.004592,0.003296,-0.009720,-0.066948,-0.075611,8.329863,17.177382,1.202968,34.096269
0.710000,-0.005401,0.002629,-0.010032,-0.045511,-0.079735,8.324697,17.353999,0.939782,34.157746
0.714000,-0.004927,0.002740,-0.010545,-0.055869,-0.107948,8.321777,16.510490,0.672199,34.517090
0.720000,-0.007467,0.004682,-0.015851,-0.057300,-0.066757,8.354756,17.075400,1.088907,34.415366
0.724000,-0.005011,0.003123,-0.011104,-0.078746,-0.080318,8.273532,16.874161,0.887422,34.527931
0.728000,-0.004632,0.002935,-0.011979,-0.064026,-0.071820,8.315922,17.131641,0.815165,34.695342
0.734000,-0.008875,0.004829,-0.017543,-0.032154,-0.046781,8.327775,16.966734,0.799652,34.417540
0.738000,-0.004956,0.003605,-0.012036,-0.062082,-0.043605,8.325807,17.292987,0.941780,34.388494
0.742000,-0.005060,0.002415,-0.010275,-0.071188,-0.099068,8.317306,17.263967,1.380218,34.562873
0.746000,-0.004577,0.002966,-0.010087,-0.039569,-0.018707,8.327448,17.322812,1.167088,34.406013
0.750000,-0.005094,0.003138,-0.010652,-0.070323,-0.088672,8.337335,17.089768,0.720443,34.483440
0.756000,-0.007270,0.003882,-0.016070,-0.090600,-0.053921,8.342694,16.963410,0.890031,34.378739
0.760000,-0.004779,0.002685,-0.009711,-0.046309,-0.069605,8.337597,17.028335,1.070212,34.500388
0.764000,-0.004618,0.003173,-0.009914,-0.051764,-0.081019,8.363518,16.723992,0.823982,34.230920
0.770000,-0.006314,0.003771,-0.014772,-0.062427,-0.049896,8.277436,17.129625,1.064849,34.573344
0.772000,-0.002061,0.001016,-0.004762,-0.029627,-0.035987,8.326807,16.930763,1.015502,34.433418
0.778000,-0.006406,0.003624,-0.014008,-0.044217,-0.054553,8.313244,16.862636,1.110973,34.681850
0.782000,-0.004401,0.002576,-0.008604,-0.044536,-0.082265,8.313930,17.264350,0.850838,34.751653
0.786000,-0.003928,0.002268,-0.008494,-0.032917,-0.046433,8.311962,16.986114,1.094003,34.426174
0.790000,-0.003461,0.002181,-0.008738,-0.070506,-0.079219,8.340979,17.037720,0.501780,34.466601
0.796000,-0.005237,0.003025,-0.011693,-0.075978,-0.059179,8.341265,17.097962,0.889337,34.863330
0.798000,-0.001739,0.001206,-0.003542,-0.057632,-0.046061,8.320069,16.856286,0.859778,34.350746
0.804000,-0.004789,0.003469,-0.010927,-0.060280,-0.086291,8.346716,16.971111,1.167168,34.810078
0.806000,-0.001818,0.001034,-0.003198,-0.071456,-0.059592,8.324767,16.944570,0.829154,34.302471
0.812000,-0.005411,0.002750,-0.010016,-0.077316,-0.079106,8.354090,17.330846,1.184369,34.505180
0.818000,-0.004334,0.002729,-0.010147,-0.052111,-0.087314,8.332362,16.809806,0.716779,34.558670
0.820000,-0.001424,0.000876,-0.002938,-0.059151,0.002639,8.331955,17.184480,0.570488,34.463956
0.826000,-0.003981,0.003025,-0.008417,-0.063979,-0.038506,8.289082,17.389980,0.926681,34.813063
0.830000,-0.002905,0.001258,-0.006054,-0.054441,-0.027019,8.323862,17.203063,0.759721,34.469781
0.834000,-0.002644,0.001483,-0.005103,-0.091340,-0.075304,8.355535,17.053014,0.785111,34.339421
0.838000,-0.002356,0.001465,-0.005426,-0.048853,-0.084311,8.312388,17.367881,0.780395,34.734143
0.844000,-0.003315,0.001910,-0.007260,-0.067784,-0.060220,8.353189,16.993219,0.963809,34.634756
0.846000,-0.001150,0.000873,-0.002441,-0.035303,-0.058344,8.299354,16.961879,1.078181,34.132313
0.852000,-0.003424,0.002137,-0.006116,-0.083372,-0.056899,8.299075,17.161588,0.493156,34.483026
0.856000,-0.002469,0.001464,-0.004350,-0.061191,-0.061598,8.303267,17.241238,1.088601,34.276688
0.860000,-0.002034,0.000581,-0.004346,-0.077314,-0.069695,8.336361,16.851230,0.836063,34.562754
0.864000,-0.001713,0.001194,-0.003256,-0.035292,-0.055611,8.327691,16.684948,0.966196,34.586957
0.870000,-0.002144,0.001085,-0.004901,-0.071775,-0.089514,8.315904,17.021731,1.070006,34.570134
0.874000,-0.001424,0.000776,-0.003264,-0.048487,-0.061175,8.283862,16.971796,0.595833,34.552788
0.878000,-0.001499,0.000665,-0.002572,-0.072615,-0.043722,8.327803,16.892442,0.857414,34.619437
0.882000,-0.001028,0.001009,-0.001696,-0.085377,-0.020537,8.325622,17.348977,0.961498,34.633943
0.886000,-0.001486,0.000742,-0.002527,-0.049077,-0.060030,8.318793,16.797527,1.016123,34.515710
0.892000,-0.001778,0.001151,-0.003397,-0.071533,-0.025361,8.346434,17.312475,0.864700,34.480777
0.896000,-0.000763,0.000357,-0.001597,-0.040298,-0.056545,8.305974,17.279597,0.951115,34.313727
0.900000,-0.000950,0.000838,-0.001416,-0.031136,-0.085193,8.331918,17.567093,0.761041,34.514939
0.904000,-0.000831,0.000633,-0.001162,-0.089970,-0.109366,8.332623,17.142222,1.020388,34.490886
0.908000,-0.000728,0.000426,-0.000698,-0.073238,-0.108344,8.337106,17.039792,0.923538,34.312472
0.914000,-0.000344,0.000417,-0.000640,-0.014183,-0.040222,8.321017,17.489595,0.926433,34.642487
0.918000,-0.000315,0.000011,-0.000443,-0.056752,-0.050348,8.348832,17.010878,0.900473,34.439737
0.922000,-0.000058,-0.000188,-0.000415,-0.063849,-0.067558,8.332267,16.776799,0.937908,34.449050
0.926000,0.000039,0.000323,0.000561,-0.045758,-0.070927,8.323784,17.301068,0.738284,34.416281
0.930000,0.000126,-0.000039,0.000090,-0.029099,-0.043844,8.335832,16.902296,1.246786,34.359965
0.934000,-0.000510,0.000160,-0.000246,-0.022260,-0.076038,8.358931,17.183704,1.155752,34.499317
0.940000,0.000201,0.000147,0.000295,-0.045988,-0.002278,8.302160,16.810113,0.706061,34.693112
0.944000,-0.000589,0.000104,0.000167,-0.070827,-0.059808,8.334215,16.832505,1.044321,34.549504
0.948000,-0.000247,0.000028,0.000806,-0.017601,-0.081735,8.344452,17.148038,1.059576,34.347591
0.952000,-0.000458,0.000190,0.001015,-0.033487,-0.054060,8.306827,16.887432,1.106348,34.406228
0.958000,-0.000824,0.000027,0.000978,-0.028536,-0.043504,8.338295,16.545564,1.093437,34.327827
0.962000,-0.000659,0.000192,0.001367,-0.052804,-0.063752,8.324618,17.165390,1.236619,34.530704
0.966000,-0.000898,0.000307,0.002134,-0.044008,-0.067710,8.309095,17.267221,0.997662,34.833316
0.972000,-0.001139,0.000189,0.003272,-0.078075,-0.083535,8.330684,16.870764,0.966093,34.657184
0.976000,-0.001089,0.000250,0.003624,-0.057479,-0.064060,8.336304,17.038697,1.189279,34.444274
0.980000,-0.001304,0.000221,0.003468,-0.069589,-0.038886,8.320807,17.474058,1.375763,34.581862
0.984000,-0.001271,0.000168,0.002335,-0.065680,-0.058749,8.289173,17.181846,1.196190,34.298806
0.988000,-0.002070,0.000222,0.003413,-0.072886,-0.048757,8.291171,16.822612,1.208173,34.580329
0.992000,-0.001495,0.000210,0.003832,-0.034412,-0.038115,8.318755,17.031748,0.967814,34.067867
0.998000,-0.002554,0.000293,0.006099,-0.051070,-0.046102,8.316793,17.038669,0.819845,34.704447
1.002000,-0.001827,0.000285,0.004229,-0.039461,-0.082258,8.316574,17.267076,1.075504,34.603779
1.006000,-0.001508,0.000091,0.005044,-0.073078,-0.061861,8.349555,16.786921,1.077667,34.648855
1.010000,-0.001586,0.000272,0.004677,-0.060679,-0.094454,8.304373,17.315276,1.371439,34.201536
1.014000,-0.001679,0.000154,0.005272,-0.049013,-0.031688,8.334144,17.000547,0.819781,34.560865
1.018000,-0.002475,0.000044,0.005450,-0.064772,-0.053500,8.321375,17.077990,0.917002,34.725614
1.024000,-0.003316,0.000359,0.009335,-0.064610,-0.088381,8.354605,16.863206,0.760454,34.330351
1.028000,-0.002775,0.000176,0.005940,-0.108186,-0.053055,8.316854,17.005992,0.723570,34.518332
1.032000,-0.002074,-0.000180,0.006295,-0.065251,-0.035083,8.311805,17.043586,0.808049,34.696017
1.036000,-0.002930,0.000413,0.006673,-0.070702,-0.071930,8.334549,17.063981,1.163466,34.490139
1.040000,-0.003097,0.000069,0.006942,-0.065898,-0.101137,8.308748,17.070811,0.849435,34.526369
1.044000,-0.003090,0.000106,0.007275,-0.031154,-0.067994,8.335300,17.212706,0.877708,34.627618
1.052000,-0.006070,0.000574,0.016481,-0.062281,-0.082999,8.360031,16.918898,1.101245,34.416080
1.056000,-0.002973,0.000292,0.007592,-0.060813,-0.078737,8.348307,17.239556,0.965844,34.820850
1.060000,-0.003356,0.000534,0.008334,-0.071599,-0.081898,8.326411,16.853107,0.668686,34.409154
1.064000,-0.003249,0.000443,0.009107,-0.057042,-0.064774,8.368381,16.808667,0.685649,34.647658
1.068000,-0.003323,0.000476,0.008763,-0.050281,-0.118067,8.332784,17.074593,0.858590,34.453402
1.070000,-0.001928,0.000176,0.004299,-0.056302,-0.069298,8.331163,16.960338,1.268426,34.386267
1.076000,-0.005910,0.000550,0.013853,-0.057661,-0.071429,8.338565,16.820667,1.102098,34.486456
1.080000,-0.003520,0.000423,0.009353,-0.068024,-0.089590,8.387176,17.468156,0.846260,34.691041
1.086000,-0.006094,0.000487,0.014609,-0.071544,-0.068659,8.296045,17.283857,0.845393,34.384983
1.090000,-0.003977,0.000189,0.010134,-0.054766,-0.089625,8.317281,17.218213,1.055366,34.256372
1.094000,-0.004042,0.000540,0.011229,-0.036056,-0.061420,8.337665,16.857967,0.454655,34.642884
1.098000,-0.004147,0.000144,0.011674,-0.092847,-0.034032,8.302170,17.024958,0.910725,34.202332
1.104000,-0.006779,0.000129,0.016272,-0.026312,-0.050695,8.337844,16.863898,0.847859,34.398701
1.108000,-0.004206,0.000057,0.011370,-0.074372,-0.068375,8.316707,17.098209,1.051011,34.965493
1.112000,-0.004759,0.000202,0.011973,-0.056550,-0.076623,8.285096,17.071684,1.152047,34.368362
1.116000,-0.004135,0.000398,0.011182,-0.034525,-0.073354,8.316427,16.752858,0.867977,34.220483
1.122000,-0.006158,0.000062,0.015132,-0.068442,-0.064692,8.308180,17.078437,0.783632,34.151810
1.124000,-0.002201,0.000322,0.005418,-0.102625,-0.063776,8.336670,17.410054,0.829788,34.212838
1.130000,-0.005922,0.000606,0.015780,-0.061194,-0.095323,8.327995,17.248628,0.791123,34.738417
1.134000,-0.003853,0.000403,0.010069,-0.086710,-0.093014,8.311065,16.934291,0.826094,34.594859
1.138000,-0.003804,0.000543,0.009266,-0.040177,-0.079734,8.317171,17.189843,1.077223,34.511180
1.142000,-0.003477,0.000305,0.009475,-0.017787,-0.065426,8.333037,17.177403,1.071717,34.567137
1.146000,-0.003481,0.000595,0.009197,-0.064674,-0.084670,8.282114,17.048044,0.648544,34.643976
1.150000,-0.004090,0.000362,0.008981,-0.037694,-0.063737,8.322589,17.083649,0.846148,34.774744
1.156000,-0.005227,0.000207,0.012789,-0.060000,-0.058103,8.294852,16.800475,1.240994,34.524310
1.160000,-0.003144,0.000072,0.008355,-0.069127,-0.095959,8.361922,17.136759,0.847171,34.207440
1.164000,-0.003267,0.000112,0.007522,-0.039576,-0.117566,8.295677,17.048717,0.986825,34.658903
1.168000,-0.003360,0.000365,0.008503,-0.059910,-0.082784,8.299496,17.037460,0.498914,34.231641
1.172000,-0.002543,0.000019,0.007842,-0.018025,-0.067035,8.335775,17.470986,0.709971,34.803584
1.178000,-0.004430,0.000277,0.010700,-0.071199,-0.058915,8.318529,16.895712,0.883993,34.649131
1.182000,-0.002589,0.000556,0.007275,-0.062973,-0.061241,8.293353,16.917624,1.225061,34.543308
1.186000,-0.003315,0.000418,0.006165,-0.025068,-0.069987,8.352030,17.164403,0.865909,34.655658
1.190000,-0.002615,0.000385,0.006488,-0.078966,-0.092361,8.302771,17.379761,0.891397,34.862022
1.194000,-0.002296,0.000109,0.005665,-0.052236,-0.072486,8.316836,16.957786,1.063223,34.623023
1.198000,-0.002231,0.000477,0.005438,-0.077743,-0.099424,8.325222,16.869713,0.956558,34.530244
1.204000,-0.003163,0.000448,0.008180,-0.066696,-0.087807,8.357396,16.911189,0.983378,34.557044
1.208000,-0.002260,0.000138,0.004525,-0.058972,-0.048441,8.315447,17.061580,0.900603,34.511534
1.212000,-0.001958,0.000446,0.004150,-0.052388,-0.075228,8.291969,17.004691,0.940229,34.404851
1.216000,-0.001594,-0.000102,0.004639,-0.028519,-0.076881,8.341251,17.587413,0.641262,34.416250
1.220000,-0.001651,0.000094,0.004128,-0.072486,-0.077530,8.308720,16.978138,1.305404,34.274580
1.226000,-0.002658,0.000137,0.004625,-0.032401,-0.068007,8.333601,17.157635,0.959495,34.593196
1.230000,-0.001311,0.000289,0.003475,-0.029943,-0.051008,8.341632,17.313759,1.145482,34.442060
1.236000,-0.002522,0.000368,0.005047,-0.086008,-0.088431,8.305957,17.112927,0.551447,34.548059
1.240000,-0.001253,-0.000009,0.002861,-0.042666,-0.070997,8.298161,16.922606,0.874334,34.204268
1.244000,-0.001591,0.000093,0.002938,-0.061142,-0.104615,8.325127,17.153588,0.582984,34.557536
1.248000,-0.001119,-0.000034,0.001500,-0.090711,-0.063855,8.333821,16.839316,0.745918,34.751430
1.252000,-0.001157,0.000040,0.002401,-0.018858,-0.057454,8.317671,17.188891,1.130709,34.829454
1.256000,-0.001040,-0.000018,0.002269,-0.040830,-0.102761,8.306792,16.926759,1.197825,34.246620
1.260000,-0.000664,0.000061,0.001373,-0.050607,-0.118111,8.325450,17.219404,0.813845,34.349728
1.264000,-0.000707,-0.000122,0.000426,-0.077889,-0.072563,8.304467,17.194078,1.090847,34.705274
1.270000,-0.000647,0.000433,0.001949,-0.048772,-0.074230,8.354436,17.117056,0.934025,34.630468
1.274000,-0.000213,0.000047,0.000418,-0.057190,-0.090119,8.321221,17.134190,1.012871,34.568263
1.278000,-0.000243,0.000276,0.000272,-0.084438,-0.066431,8.338093,17.238009,0.595062,34.503685
1.282000,0.000030,0.000169,0.000217,-0.007546,-0.087151,8.320799,16.809022,0.961876,34.845309
1.288000,-0.000153,0.000063,-0.000381,-0.068944,-0.070333,8.333896,16.984299,0.933116,34.674719
1.292000,-0.000159,0.000167,0.000329,-0.058412,-0.052703,8.313758,16.677271,0.807997,34.599206
1.296000,-0.000507,0.000219,0.000123,-0.037454,-0.063758,8.325957,16.517490,0.720350,34.741077
1.300000,-0.002380,-0.000027,-0.000507,-0.063685,-0.025757,8.309725,17.268868,0.980386,34.698947
1.304000,-0.004846,-0.000025,-0.001988,-0.051324,-0.089970,8.362205,17.117081,1.014776,34.468184
1.310000,-0.010073,-0.000219,-0.003627,-0.039438,-0.088851,8.336534,17.097982,0.784833,34.772429
1.314000,-0.008564,-0.000250,-0.003458,-0.052111,-0.085870,8.341486,17.368847,1.171591,34.450391
1.318000,-0.010833,-0.000250,-0.004371,-0.049445,-0.071460,8.325352,16.891994,1.150588,34.633816
1.322000,-0.011551,-0.000335,-0.005245,-0.048588,-0.071565,8.327388,17.139089,0.781285,34.611047
1.326000,-0.013410,-0.000389,-0.005328,-0.070189,-0.042482,8.305015,16.866749,1.024049,34.794706
1.332000,-0.023406,-0.000532,-0.009363,-0.048619,-0.083872,8.361675,17.390117,1.035828,34.262841
1.336000,-0.017298,-0.000532,-0.007512,-0.075438,-0.092814,8.306638,17.113965,1.309704,34.361770
1.340000,-0.018407,-0.000560,-0.007397,-0.050675,-0.106286,8.316544,17.064613,1.167793,34.648027
1.344000,-0.017304,-0.000304,-0.007202,-0.100582,-0.074327,8.316105,17.553871,0.752403,34.338480
1.348000,-0.017766,-0.000426,-0.006334,-0.087169,-0.057875,8.299822,17.311936,0.661200,34.491282
1.354000,-0.026041,-0.000594,-0.009983,-0.041069,-0.094768,8.358483,17.063518,1.088297,34.647575
1.358000,-0.017393,-0.000611,-0.007184,-0.041997,-0.101535,8.307695,17.164307,0.809291,34.763317
1.362000,-0.017417,0.000089,-0.006329,-0.044899,-0.087078,8.322771,17.851834,1.018052,34.548500
1.368000,-0.021076,-0.000554,-0.008197,-0.031431,-0.097585,8.328025,16.826261,0.759732,34.488150
1.372000,-0.012144,-0.000296,-0.004271,-0.037821,-0.066576,8.322965,16.973354,0.878082,34.871881
1.376000,-0.010882,0.000052,-0.003584,-0.062893,-0.118311,8.304884,17.316621,0.849349,34.296585
1.378000,-0.004590,-0.000152,-0.001861,-0.050638,-0.086178,8.327693,17.334032,0.870014,34.196743
1.384000,-0.011704,-0.000149,-0.004269,-0.036090,-0.107725,8.321419,17.213663,1.075766,34.062016
1.388000,-0.005607,-0.000230,-0.002374,-0.053228,-0.098164,8.355046,16.917598,0.856289,34.670883
1.392000,-0.003853,-0.000059,-0.001638,-0.038709,-0.078238,8.362360,16.977100,0.716850,34.669475
1.398000,-0.002760,-0.000033,-0.001674,-0.087248,-0.084330,8.333567,16.986256,0.981351,34.315238
1.400000,-0.000255,0.000154,-0.000132,-0.075464,-0.078111,8.303867,16.815949,1.022428,34.578026
1.406000,0.000142,-0.000087,-0.000148,-0.043091,-0.062835,8.331672,17.254231,0.774358,34.376179
1.410000,-0.000345,-0.000061,-0.000586,-0.094369,-0.103666,8.337567,17.338690,0.583566,34.770449
1.414000,-0.000164,0.000240,-0.000991,-0.056585,-0.138493,8.351241,17.330925,1.042739,34.396845
1.420000,0.000291,-0.000019,-0.001303,-0.054252,-0.100670,8.346243,16.919227,0.836721,34.279847
1.424000,0.003628,0.000957,-0.002124,-0.070697,-0.097908,8.333407,16.891139,1.002068,34.654488
1.428000,0.005425,0.001204,-0.002950,-0.021157,-0.051099,8.333435,16.874054,1.009082,34.616963
1.432000,0.006967,0.001680,-0.002123,-0.047797,-0.067636,8.300836,17.366935,0.989600,34.733458
1.436000,0.009831,0.002226,-0.002422,-0.044201,-0.098060,8.332605,17.167664,1.070292,34.281651
1.442000,0.018471,0.004262,-0.006380,-0.061914,-0.072523,8.328566,17.051709,0.877007,34.482876
1.446000,0.014416,0.003756,-0.004334,-0.119413,-0.078532,8.339134,17.160170,1.009038,34.605600
1.450000,0.016467,0.003843,-0.003856,-0.048579,-0.083648,8.359300,17.040039,0.747635,34.741602
1.454000,0.018757,0.004321,-0.004939,-0.051431,-0.072118,8.347250,17.140920,0.696085,34.493122
1.460000,0.031351,0.007939,-0.007796,-0.050659,-0.097992,8.277023,16.736582,0.904021,34.492637
1.464000,0.023386,0.005592,-0.005548,-0.067773,-0.063749,8.319072,16.960996,1.206114,34.308401
1.468000,0.025341,0.006085,-0.006622,-0.042195,-0.075237,8.352167,17.206920,1.326081,34.738995
1.474000,0.040455,0.009439,-0.010386,-0.064613,-0.067441,8.336397,17.063440,0.692632,34.269527
1.478000,0.026311,0.006655,-0.006904,-0.028598,-0.110393,8.316954,16.989311,0.782883,34.393656
1.482000,0.025978,0.006319,-0.006725,-0.041973,-0.043930,8.331040,17.004860,0.899597,34.626083
1.486000,0.026960,0.006606,-0.006937,-0.065202,-0.058925,8.343717,16.828341,0.792064,34.502183
1.490000,0.026198,0.005710,-0.006985,-0.066739,-0.066644,8.350006,17.028353,1.281417,34.577971
1.494000,0.026465,0.006391,-0.007562,-0.021576,-0.057434,8.327093,16.754259,1.012378,34.638679
1.500000,0.038916,0.008806,-0.010627,-0.061075,-0.059855,8.323872,17.039789,0.704164,34.872696
1.504000,0.023732,0.005960,-0.006104,-0.056357,-0.091622,8.352359,16.856945,1.068946,34.572847
1.508000,0.020808,0.004742,-0.005463,-0.083325,-0.078297,8.328173,17.178163,1.273753,34.642741
1.512000,0.019831,0.004965,-0.005250,-0.020348,-0.077435,8.312776,16.954105,1.161105,34.413203
1.516000,0.017019,0.004416,-0.004198,-0.071744,-0.034883,8.269497,17.092644,0.701566,34.335944
1.520000,0.015477,0.003613,-0.004039,-0.080972,-0.012733,8.338121,17.070545,1.024030,34.207211
1.526000,0.019906,0.004653,-0.005197,-0.083204,-0.067978,8.327567,17.155813,0.798366,34.781955
1.530000,0.010950,0.003285,-0.002653,-0.043945,-0.029667,8.334042,16.991759,0.741469,34.550190
1.534000,0.008546,0.001811,-0.002595,-0.071948,-0.050595,8.312128,16.882805,1.203787,34.535770
1.538000,0.007345,0.001743,-0.002150,-0.081955,-0.101701,8.294648,17.029869,1.074507,34.342141
1.542000,0.005206,0.001255,-0.000393,-0.079233,-0.089781,8.332524,16.810568,1.039931,34.323949
1.546000,0.002844,0.000450,-0.000446,-0.085355,-0.129322,8.305158,16.846955,1.122900,34.636978
1.552000,0.001105,0.000461,-0.000355,-0.070696,-0.078098,8.356848,16.817273,0.842606,34.361730
1.556000,-0.000692,-0.000221,0.000236,-0.073542,-0.048145,8.325825,17.401095,1.136339,34.454741
1.560000,0.000244,-0.000018,0.000017,-0.062018,-0.082738,8.325022,17.169906,0.700563,34.406218
1.564000,-0.000207,0.000340,-0.000529,-0.076601,-0.062466,8.321444,17.079063,1.048989,34.517049
1.568000,0.000082,0.000129,-0.000336,-0.080223,-0.045887,8.334815,17.106637,0.976999,34.504313
1.572000,0.001633,-0.000267,-0.000760,-0.070197,-0.062893,8.324517,17.001849,0.880078,34.580479
1.578000,0.003451,-0.000659,-0.003359,-0.078631,-0.064283,8.313685,17.138143,1.001143,34.308665
1.582000,0.003061,-0.000614,-0.003114,-0.080167,-0.098320,8.318977,16.866631,1.040419,34.819196
1.586000,0.004642,-0.000363,-0.002591,-0.049665,-0.079444,8.377036,17.088498,0.885096,34.578840
1.590000,0.004991,-0.000682,-0.003346,-0.043212,-0.038963,8.342243,16.840216,1.217515,34.571494
1.594000,0.005807,-0.001086,-0.003543,-0.023671,-0.080931,8.274572,16.930404,0.934274,34.433906
1.600000,0.009962,-0.001465,-0.006159,-0.069976,-0.053465,8.329263,17.312272,0.929261,34.565229
1.604000,0.007690,-0.001170,-0.003805,-0.055382,-0.037821,8.333912,17.170265,0.826848,34.572498
1.608000,0.008893,-0.001224,-0.004323,-0.044781,-0.083098,8.304120,17.112779,0.671699,34.583733
1.612000,0.009402,-0.001449,-0.005308,-0.028290,-0.061796,8.313641,17.051290,0.997820,34.541769
1.616000,0.010748,-0.001755,-0.005665,-0.073304,-0.076553,8.311912,17.110274,1.232318,34.307495
1.620000,0.011806,-0.001803,-0.004961,-0.086583,-0.093315,8.322276,16.994674,1.105089,34.627209
1.626000,0.016840,-0.003162,-0.008233,-0.072554,-0.040163,8.332118,17.149523,1.510067,34.652580
1.630000,0.009471,-0.001790,-0.004171,-0.055184,-0.077150,8.323767,17.279144,0.922020,34.342805
1.634000,0.008332,-0.001703,-0.002754,-0.053194,-0.047437,8.324315,17.000949,1.119703,34.612315
1.640000,0.011636,-0.001849,-0.004779,-0.038647,-0.061322,8.342195,17.139445,0.943194,34.461742
1.644000,0.006514,-0.000788,-0.002675,-0.070253,-0.097807,8.331619,17.027224,1.125168,34.695639
1.648000,0.005800,-0.000685,-0.002306,-0.045723,-0.049455,8.334721,16.868118,1.133444,34.408224
1.654000,0.007178,-0.000939,-0.003259,-0.067341,-0.077076,8.337333,17.152458,0.950825,34.835143
1.658000,0.003984,-0.000804,-0.001093,-0.051684,-0.071979,8.348578,16.981688,1.022865,34.650272
1.662000,0.003211,0.000091,-0.001082,-0.078085,-0.072320,8.359205,16.893857,0.974959,34.482035
1.666000,0.001388,-0.000468,-0.002102,-0.042747,-0.067720,8.332002,16.963320,0.904636,34.747582
1.670000,0.000986,-0.000196,-0.001244,-0.057129,-0.115825,8.307929,16.947034,1.098715,34.593928
1.674000,0.000159,-0.000169,-0.000636,-0.061268,-0.067643,8.331190,16.793241,1.089689,34.260981
1.678000,-0.000360,-0.000033,-0.000840,-0.037463,-0.066942,8.304881,17.183400,0.891985,34.534905
1.684000,-0.000003,-0.000041,-0.000608,-0.053683,-0.067039,8.323061,16.813060,1.013338,34.711866
1.688000,-0.000190,0.000266,-0.000803,-0.066122,-0.015249,8.281025,16.906920,0.872831,34.620879
1.692000,0.000091,0.000119,-0.000326,-0.068070,-0.060520,8.310456,17.154782,0.520900,34.921575
1.698000,-0.001106,-0.001685,-0.000079,-0.042035,-0.044078,8.325245,17.164458,1.123998,34.505523
1.702000,-0.000993,-0.001759,0.000837,-0.065576,-0.062761,8.324095,16.705441,1.119551,34.424167
1.706000,-0.000873,-0.002085,0.001543,-0.061624,-0.064318,8.331298,17.167988,0.947199,34.578767
1.710000,-0.001358,-0.002479,0.002053,-0.044770,-0.085373,8.305022,16.914253,1.155582,34.303787
1.714000,-0.001005,-0.002783,0.003547,-0.095118,-0.043125,8.331255,17.496598,1.419837,34.847091
1.718000,-0.001764,-0.002925,0.003773,-0.049571,-0.089473,8.362200,17.310133,0.971915,34.757085
1.722000,-0.002150,-0.003741,0.003170,-0.071907,-0.057323,8.343436,17.046421,0.688414,34.821688
1.728000,-0.004020,-0.006530,0.007285,-0.079308,-0.071860,8.329820,17.283371,0.980639,34.295610
1.732000,-0.003122,-0.004576,0.005472,-0.001632,-0.054872,8.358599,16.953624,0.635035,34.713420
1.736000,-0.003155,-0.005166,0.005266,-0.034761,-0.053623,8.306261,16.758424,1.040372,34.368452
1.740000,-0.003440,-0.005965,0.005832,-0.037500,-0.091362,8.358488,16.793310,1.030180,34.466284
1.744000,-0.004373,-0.006344,0.006690,-0.054619,-0.114737,8.319341,17.230574,0.739000,34.384268
1.750000,-0.006250,-0.010445,0.009717,-0.045111,-0.066283,8.340625,16.610594,0.560866,34.875905
1.754000,-0.004152,-0.006533,0.006926,-0.075212,-0.087975,8.324767,17.472958,0.998513,34.370315
1.754000,-0.000134,0.000165,-0.000116,-0.057436,-0.068666,8.350955,17.014043,1.148948,34.429931
1.758000,-0.003738,-0.005829,0.005819,-0.075016,-0.055447,8.327578,17.118165,0.977292,34.419054
1.764000,-0.004534,-0.007876,0.006402,-0.088995,-0.088508,8.326447,16.972137,1.035205,34.339909
1.768000,-0.003061,-0.004709,0.004601,-0.017494,-0.050329,8.291411,17.161222,0.887122,34.552333
1.772000,-0.002768,-0.003682,0.004053,-0.120035,-0.047317,8.324267,17.341367,0.944919,34.704750
1.774000,-0.001148,-0.002261,0.001288,-0.034222,-0.079892,8.333269,16.729825,0.886464,34.532721
1.780000,-0.003788,-0.005572,0.004845,-0.039983,-0.071278,8.317615,17.446409,0.598642,34.508481
1.784000,-0.002020,-0.002663,0.002023,-0.056442,-0.051376,8.325918,17.356904,0.824596,34.485827
1.790000,-0.001465,-0.002913,0.002940,-0.037210,-0.071681,8.299421,17.140606,1.010984,34.828285
1.794000,-0.001276,-0.001698,0.002210,-0.016924,-0.074597,8.314744,17.163355,1.230928,34.457153
1.798000,-0.000775,-0.001378,0.001305,-0.058065,-0.061072,8.318409,16.934499,0.931453,34.303103
1.800000,-0.000406,-0.000579,0.000390,-0.057068,-0.063238,8.329732,17.170410,0.900524,34.396943
1.806000,-0.000711,-0.000538,0.000783,-0.104231,-0.024530,8.323237,17.173422,0.754378,34.674767
1.810000,-0.000087,0.000408,0.000346,-0.044996,-0.090244,8.316709,16.985159,1.198006,34.450682
1.816000,-0.000075,0.000004,-0.000038,-0.070257,-0.032820,8.314394,17.199071,1.009289,34.669654
1.820000,0.000052,0.000272,0.000289,-0.041420,-0.075567,8.317080,17.098487,0.654226,34.720699
1.826000,-0.000265,0.000055,-0.000034,-0.061657,-0.036570,8.288099,17.060418,1.126769,34.659327
1.830000,-0.000714,0.000614,0.000098,-0.083253,-0.101743,8.304278,16.928254,0.798332,34.652645
1.832000,-0.000874,0.000214,0.000257,-0.073093,-0.095059,8.311403,17.018796,1.154853,34.492067
1.838000,-0.001870,0.000965,0.000450,-0.097382,-0.083089,8.350412,17.274267,1.055725,34.581945
1.842000,-0.001821,0.000962,0.000566,-0.048646,-0.058838,8.305986,17.004938,1.018673,34.756336
1.846000,-0.001896,0.001271,-0.000081,-0.087797,-0.085650,8.325335,17.066388,1.075982,34.535543
1.850000,-0.002355,0.001557,0.000233,-0.039365,-0.044559,8.338923,17.100641,1.305345,34.758239
1.854000,-0.002339,0.001676,0.000184,-0.071795,-0.062333,8.319727,17.091721,1.014315,34.391613
1.858000,-0.003019,0.002167,0.000286,-0.061047,-0.021849,8.290677,17.042823,1.032186,34.690857
1.864000,-0.005687,0.003163,0.001125,-0.061824,-0.038678,8.296648,17.220075,0.758026,34.715432
1.868000,-0.004207,0.001893,0.000595,-0.070133,-0.073916,8.321704,17.058385,0.780979,34.784811
1.872000,-0.004029,0.002715,0.001131,-0.089421,-0.051376,8.339642,17.357043,1.021324,34.664094
1.876000,-0.004925,0.002529,0.001220,-0.047071,-0.081089,8.327951,17.222652,1.238677,34.667994
1.882000,-0.007382,0.004998,0.001465,-0.075622,-0.070488,8.369630,16.818346,1.355869,34.733392
1.884000,-0.002874,0.001868,0.000633,-0.055613,-0.087818,8.329843,16.975741,0.769884,34.625468
1.890000,-0.009098,0.005138,0.001643,-0.084969,-0.088350,8.305214,17.019610,1.030472,34.671811
1.896000,-0.009577,0.005549,0.002236,-0.066851,-0.045594,8.337870,16.963352,0.750423,34.603325
1.900000,-0.006522,0.004072,0.001249,-0.047479,-0.086859,8.315292,16.969179,0.992630,34.270489
1.904000,-0.007350,0.004564,0.001028,-0.052689,-0.077611,8.320594,17.022746,1.101155,34.646356
1.908000,-0.007789,0.004057,0.001049,-0.049406,-0.072231,8.330765,16.918913,0.737208,34.532953
1.912000,-0.007992,0.004479,0.001410,-0.026336,-0.068925,8.349988,17.178281,1.039169,34.431575
1.916000,-0.008236,0.005058,0.001147,-0.047339,-0.095315,8.303983,17.126895,1.249354,34.570136
1.922000,-0.010889,0.006330,0.002428,-0.075637,-0.083328,8.324386,16.754032,0.997406,34.924861
1.926000,-0.006796,0.003733,0.001275,-0.046553,-0.041006,8.332421,16.820158,0.962968,34.487743
1.930000,-0.005879,0.004166,0.001118,-0.068071,-0.108496,8.327630,17.086096,0.993787,34.751271
1.934000,-0.006463,0.003847,0.001146,-0.058690,-0.063033,8.368678,17.083446,1.201476,34.509261
1.938000,-0.005438,0.003016,0.000343,-0.034291,-0.051068,8.306807,16.999257,0.825727,34.182073
1.942000,-0.005649,0.002926,0.000565,-0.069747,-0.068997,8.310571,17.119452,1.349555,34.620644
1.948000,-0.007317,0.004456,0.000558,-0.049459,-0.060129,8.304262,17.198024,0.873226,34.485617
1.952000,-0.004836,0.002976,0.000344,-0.035513,-0.065421,8.291341,17.255022,1.339106,34.819564
1.956000,-0.004458,0.002238,0.000868,-0.060752,-0.061961,8.345822,17.220172,0.958226,34.573466
1.960000,-0.003569,0.002188,0.000694,-0.066592,-0.051054,8.329980,16.919586,0.671919,34.316133
1.964000,-0.003505,0.001713,0.000364,-0.086357,-0.096397,8.348842,17.074132,0.894167,34.250241
1.968000,-0.002929,0.001740,0.000488,-0.035776,-0.061443,8.356366,17.057134,0.888654,34.307498
1.974000,-0.003658,0.002621,0.001077,-0.038669,-0.054288,8.307831,16.992671,0.887604,34.414837
1.978000,-0.001806,0.001688,0.000355,-0.025114,-0.057315,8.318426,17.242306,0.582569,34.151172
1.984000,-0.002449,0.001728,0.000635,-0.073554,-0.063030,8.292511,17.064200,0.967323,34.611736
1.986000,-0.000731,0.000677,0.000016,-0.045989,-0.087457,8.333679,16.959653,0.771868,34.532493
1.990000,-0.001371,0.000548,-0.000011,-0.070630,-0.073603,8.310944,16.978357,1.247357,34.471473
1.994000,-0.001092,0.000591,0.000034,-0.063378,-0.030205,8.354135,17.053122,1.425299,34.496449
2.000000,-0.000911,0.000286,-0.000339,-0.052986,-0.068840,8.343229,17.170487,1.072816,34.674896
2.004000,0.000082,-0.000111,-0.000258,-0.037340,-0.085058,8.324645,17.119148,0.985675,34.553299
2.008000,-0.000166,-0.000082,-0.000036,-0.096856,-0.045681,8.367846,16.952439,1.011027,34.924785
2.012000,-0.000292,0.000347,-0.000570,-0.058510,-0.111183,8.338484,17.296621,1.006874,34.698850
2.016000,-0.000107,-0.000090,0.000247,-0.078347,-0.081709,8.338841,16.895957,0.898114,34.716563
2.022000,-0.001066,0.000279,-0.000584,-0.054991,-0.078208,8.313107,17.349888,0.799691,34.440806
2.026000,-0.001578,-0.000134,-0.001149,-0.057579,-0.076672,8.303839,17.483658,0.966620,34.885244
2.030000,-0.000980,0.000303,-0.001071,-0.066829,-0.061597,8.322615,17.103224,0.995447,34.475125
2.034000,-0.001718,0.000536,-0.001338,-0.088640,-0.048555,8.270980,17.244898,1.209471,34.334615
2.038000,-0.001837,-0.000023,-0.001904,-0.069132,-0.081062,8.329194,16.995425,1.124067,34.509050
2.042000,-0.002096,0.000418,-0.002287,-0.048815,-0.045905,8.311841,16.968229,1.142133,34.746621
2.048000,-0.004275,0.000157,-0.002961,-0.048314,-0.064817,8.291694,16.976638,0.988175,34.301234
2.054000,-0.005093,0.000496,-0.003736,-0.021831,-0.097944,8.334665,16.890679,0.970747,34.540148
2.058000,-0.003747,0.000310,-0.002912,-0.052296,-0.063496,8.316233,16.876892,0.808584,34.328935
2.060000,-0.002439,0.000213,-0.001906,-0.043481,-0.100597,8.324878,17.150818,0.567246,34.339250
2.066000,-0.007581,0.000775,-0.004043,-0.071551,-0.083041,8.334851,16.704147,1.026289,34.186897
2.070000,-0.005141,0.000420,-0.003366,-0.038463,-0.076475,8.341947,17.069121,1.260952,34.856637
2.076000,-0.007476,0.000790,-0.005928,-0.059207,-0.087803,8.321004,16.714982,1.001958,34.343779
2.080000,-0.003452,0.000552,-0.002009,-0.066262,-0.083961,8.334845,16.832973,0.922280,34.770987
2.084000,-0.003916,0.000559,-0.001875,-0.055504,-0.102115,8.292903,17.178309,0.805963,34.670218
2.088000,-0.003437,0.000695,-0.002814,-0.051689,-0.086591,8.332295,16.630436,0.798415,34.375708
2.092000,-0.003168,0.000311,-0.001634,-0.044510,-0.095881,8.297742,17.077765,0.904083,34.507201
2.096000,-0.002772,0.000849,-0.000793,-0.026517,-0.063252,8.317751,17.028914,0.947161,34.638575
2.100000,-0.002121,0.000430,-0.001920,-0.079122,-0.080700,8.302198,17.091300,0.887912,34.611940
2.106000,-0.002873,0.000410,-0.002098,-0.042486,-0.086159,8.348255,17.221642,0.835345,34.523126
2.110000,-0.001480,0.000400,-0.000942,-0.068385,-0.091579,8.317609,17.286297,0.729887,34.882278
2.114000,-0.001337,0.000397,-0.000495,-0.113230,-0.073017,8.322774,16.804417,0.875661,34.351553
2.118000,-0.001192,0.000339,-0.000718,-0.043690,-0.108655,8.349633,17.483907,0.845113,34.438137
2.122000,-0.000430,0.000241,0.000086,-0.043777,-0.045382,8.325142,16.990949,0.960457,34.471359
2.126000,0.000311,-0.000431,-0.000227,-0.039860,-0.100280,8.340583,17.036852,0.262190,34.545607
2.132000,-0.000420,0.000682,-0.000591,-0.075871,-0.103922,8.303537,17.065815,1.142196,34.786828
2.136000,-0.000049,-0.000221,-0.000559,-0.060197,-0.087243,8.333788,17.026272,1.099400,34.322379
2.140000,-0.000217,0.000228,-0.000114,-0.096774,-0.113515,8.353878,17.210254,0.831853,34.306371
2.146000,-0.000475,-0.000084,-0.000313,-0.042079,-0.091794,8.326144,17.026698,1.211919,34.569467
2.150000,-0.000374,-0.000274,0.000142,-0.039733,-0.062189,8.329193,17.350816,0.797819,34.736444
2.154000,-0.000396,-0.000410,-0.000149,-0.038187,-0.085385,8.326833,16.936948,0.985448,34.576275
2.158000,-0.000731,-0.000185,-0.000139,-0.060619,-0.076168,8.318344,17.190077,0.990276,34.392100
2.162000,-0.000215,-0.000321,0.000268,-0.058775,-0.069979,8.305064,17.232295,1.275542,34.422006
2.166000,-0.000185,-0.000339,0.000317,-0.044060,-0.090364,8.321804,16.709200,1.038087,34.470642
2.172000,-0.001003,-0.000592,0.000817,-0.066157,-0.063485,8.283474,17.037618,1.048864,34.446470
2.176000,-0.000589,-0.000402,0.000895,-0.042219,-0.084371,8.350804,17.011163,0.922299,34.817516
2.180000,-0.000939,-0.000515,0.000639,-0.069803,-0.071732,8.364795,17.068847,0.703368,34.303924
2.184000,-0.000985,-0.000642,0.001383,-0.065727,-0.045795,8.326992,17.089990,0.723620,34.233280
2.188000,-0.000608,-0.000675,0.000794,-0.051731,-0.069380,8.343301,17.185719,1.072966,34.463291
2.192000,-0.001184,-0.000615,0.001373,-0.073905,-0.090667,8.313328,17.119968,0.977098,34.650225
2.198000,-0.001621,-0.000932,0.002257,-0.058036,-0.075325,8.340527,17.180055,0.438480,34.487766
2.202000,-0.001104,-0.000657,0.001413,-0.033712,-0.090582,8.311405,17.163437,0.861195,34.541024
2.206000,-0.001492,-0.000658,0.001769,-0.088954,-0.030006,8.332348,17.208403,0.955571,34.824509
2.212000,-0.002371,-0.001340,0.001723,-0.050269,-0.098045,8.326181,17.281110,0.916716,34.495751
2.216000,-0.001773,-0.000895,0.001511,-0.049642,-0.076172,8.347895,16.515000,0.876324,34.273129
2.220000,-0.001576,-0.001236,0.001078,-0.013248,-0.090219,8.305594,17.106946,0.968412,34.667817
2.224000,-0.001538,-0.001188,0.001343,-0.077521,-0.038779,8.347222,17.333585,0.933619,34.973009
2.228000,-0.001805,-0.001591,0.001824,-0.062496,-0.070482,8.309739,17.109539,0.685920,34.425273
2.234000,-0.002161,-0.002278,0.003709,-0.041734,-0.078945,8.320960,16.993296,1.051895,34.350907
2.238000,-0.001625,-0.001268,0.002204,-0.047360,-0.075123,8.321466,17.007896,0.906446,34.446980
2.242000,-0.001974,-0.001435,0.002121,-0.059369,-0.055354,8.359404,17.221852,1.060635,34.757959
2.246000,-0.002472,-0.001206,0.002186,-0.047730,-0.055269,8.322174,17.001955,1.168295,34.270344
2.250000,-0.002084,-0.001484,0.002244,-0.073755,-0.058343,8.329657,16.798474,0.702357,34.534800
2.254000,-0.001903,-0.001424,0.002613,-0.088117,-0.078204,8.324532,17.297824,0.819780,34.441089
2.260000,-0.003111,-0.002728,0.004585,-0.069628,-0.041807,8.335879,17.024973,1.045434,34.440725
2.264000,-0.002091,-0.002128,0.002803,-0.031572,-0.066436,8.327844,16.964142,0.675425,34.422452
2.268000,-0.002739,-0.002088,0.002191,-0.078072,-0.071592,8.326466,17.294070,0.951639,34.389917
2.272000,-0.002737,-0.001876,0.002672,-0.086686,-0.082795,8.319684,17.305662,0.820848,34.805890
2.276000,-0.003065,-0.001925,0.003226,-0.050713,-0.062707,8.314481,17.338220,0.943773,34.243493
2.282000,-0.003412,-0.002802,0.004621,-0.049496,-0.075790,8.268339,17.509319,1.006831,34.469609
2.288000,-0.003561,-0.003469,0.003811,-0.068603,-0.050473,8.292290,17.252950,1.066799,34.784333
2.292000,-0.002884,-0.002125,0.003233,-0.056482,-0.040353,8.310865,16.941463,0.992262,34.303165
2.296000,-0.002213,-0.001653,0.002828,-0.058651,-0.098679,8.359014,17.197699,0.926019,34.585654
2.300000,-0.002348,-0.001401,0.002485,-0.060323,-0.071515,8.353511,17.041352,0.881623,34.364148
2.304000,-0.002073,-0.001431,0.002032,-0.045252,-0.090174,8.313150,17.222053,1.216577,34.424072
2.308000,-0.002254,-0.001733,0.001997,-0.048548,-0.085169,8.283510,17.176679,1.012427,34.532758
2.312000,-0.002128,-0.001711,0.002842,-0.059539,-0.102492,8.358793,16.776195,0.677957,34.380618
2.316000,-0.002400,-0.001951,0.002010,-0.054831,-0.090969,8.312115,16.658506,1.199545,34.601785
2.320000,-0.002375,-0.001608,0.002430,-0.096438,-0.094958,8.346695,17.065068,0.505851,34.179458
2.324000,-0.002179,-0.001450,0.001911,-0.013286,-0.058206,8.324346,17.070609,1.307036,34.396142
2.330000,-0.002657,-0.001692,0.002993,-0.066939,-0.092220,8.367735,17.237731,0.834418,34.541270
2.334000,-0.001639,-0.001014,0.002753,-0.061996,-0.030319,8.354301,17.305499,0.859843,34.397602
2.338000,-0.001547,-0.001221,0.002103,-0.093247,-0.086452,8.312711,17.344877,0.934944,34.740695
2.344000,-0.002628,-0.001539,0.002702,-0.059700,-0.074319,8.386618,16.939896,1.196661,34.583081
2.348000,-0.001738,-0.001259,0.001833,-0.079767,-0.068536,8.338633,17.155868,0.950677,34.432897
2.352000,-0.001620,-0.001304,0.001673,-0.058029,-0.070979,8.305133,17.071984,0.839739,34.715049
2.356000,-0.001492,-0.001199,0.001021,-0.055807,-0.062931,8.332807,17.033372,0.636450,34.206551
2.360000,-0.001235,-0.000928,0.001266,-0.046421,-0.044792,8.345094,16.739980,1.043590,34.308190
2.364000,-0.001049,-0.000432,0.001190,-0.056462,-0.096930,8.314102,17.130538,0.950657,34.517532
2.370000,-0.001692,-0.001025,0.002423,-0.062290,-0.068261,8.316556,17.157355,0.954478,34.007879
2.374000,-0.001356,-0.000408,0.000935,-0.076711,-0.097347,8.292906,17.010624,1.005657,34.845902
2.378000,-0.000862,-0.000394,0.000997,-0.062563,-0.103044,8.306026,17.397955,0.660980,34.462482
2.382000,-0.001214,-0.000280,0.000865,-0.065753,-0.100378,8.333858,16.771393,1.216224,34.724964
2.386000,-0.000857,-0.000543,0.000545,-0.042863,-0.084541,8.317389,17.140748,0.955275,34.795777
2.392000,-0.001478,-0.000853,0.000507,-0.046919,-0.087901,8.310418,17.306711,1.146169,34.617710
2.396000,-0.000966,-0.000129,0.000290,-0.033622,-0.055700,8.338331,17.006091,1.070729,34.686932
2.400000,-0.000845,-0.000377,0.000434,-0.039067,-0.113420,8.353500,17.036716,0.855147,34.748024
2.404000,-0.000510,-0.000648,0.000514,-0.049803,-0.053178,8.334008,17.394145,0.778365,34.478896
2.408000,-0.000933,-0.000299,0.000254,-0.056708,-0.079133,8.333604,17.141212,1.016373,34.428974
2.412000,-0.000852,-0.000035,0.000646,-0.063975,-0.056104,8.294211,17.436497,1.003805,34.631977
2.418000,-0.000307,-0.000186,0.000654,-0.068598,-0.032374,8.313576,17.412536,0.835913,34.512542
2.422000,-0.000222,-0.000024,-0.000117,-0.062486,-0.091402,8.332973,16.832236,0.889226,34.242719
2.426000,-0.000260,0.000340,-0.000162,-0.072528,-0.077349,8.343317,17.217737,1.003348,34.476208
2.430000,-0.000192,0.000203,0.000026,-0.071772,-0.057703,8.342780,17.054311,1.069131,34.310770
2.434000,0.000033,0.000227,0.000005,-0.036411,-0.070762,8.391558,17.112985,1.057228,34.186225
2.440000,-0.000456,-0.000105,0.000180,-0.036412,-0.067052,8.308538,17.205641,0.599901,34.506921
2.444000,0.000039,0.000121,-0.000303,-0.059634,-0.044834,8.360672,16.849546,1.198209,34.306650
2.448000,0.000309,0.000527,-0.000364,-0.027882,-0.057742,8.300881,16.755701,0.948263,34.449901
2.452000,0.001042,0.000336,-0.000373,-0.047877,-0.098564,8.296207,16.783711,1.024072,34.145943
2.456000,0.001217,0.000322,-0.000458,-0.052885,-0.062934,8.344417,16.873913,0.812176,34.684179
2.462000,0.002359,0.000449,-0.001497,-0.047694,-0.062677,8.306346,17.323080,1.135913,34.500110
2.466000,0.001847,0.000413,-0.001089,-0.059845,-0.103718,8.285805,16.605821,0.999108,34.812966
2.470000,0.002056,0.000647,-0.001320,-0.042810,-0.088437,8.343794,17.311078,1.013399,34.300513
2.476000,0.003203,0.000852,-0.002779,-0.035421,-0.085625,8.338104,16.972064,1.297422,34.256775
2.480000,0.003114,0.000452,-0.002005,-0.071114,-0.110244,8.328688,16.852072,1.107046,34.446663
2.484000,0.003537,0.000450,-0.002816,-0.067289,-0.081771,8.366033,16.845478,1.220542,34.618565
2.488000,0.003467,0.000676,-0.002947,-0.088581,-0.065051,8.306142,16.999506,0.706143,34.924209
2.492000,0.003682,0.000601,-0.002384,-0.039515,-0.066621,8.333851,17.068275,1.196787,34.701947
2.496000,0.004719,0.000902,-0.002389,-0.076907,-0.087909,8.344899,16.972520,0.829609,34.808456
2.502000,0.007289,0.000843,-0.005288,-0.022171,-0.062533,8.308107,17.354521,0.568229,34.635753
2.506000,0.005297,0.000808,-0.004007,-0.051068,-0.023083,8.328268,17.049286,0.731793,34.580293
2.510000,0.005329,0.000878,-0.003039,-0.028452,-0.086771,8.325354,16.812511,0.841979,34.376068
2.514000,0.005772,0.001111,-0.003894,-0.045470,-0.063628,8.310749,16.976077,0.919172,34.334290
2.518000,0.006778,0.001164,-0.004701,-0.074321,-0.051473,8.350230,17.375288,1.029270,34.875722
2.524000,0.009782,0.002006,-0.005851,-0.027568,-0.034688,8.328918,17.041088,0.830297,34.868847
2.528000,0.006903,0.001678,-0.005090,-0.064388,-0.043580,8.340582,16.960323,0.903011,34.668881
2.532000,0.007378,0.001083,-0.005343,-0.077956,-0.091407,8.336123,16.833079,1.075812,34.642583
2.536000,0.007384,0.001164,-0.004404,-0.061756,-0.070840,8.347831,17.315912,1.111599,34.780691
2.542000,0.009419,0.001463,-0.007023,-0.042921,-0.043165,8.287257,17.049884,0.775739,34.936799
2.546000,0.006364,0.001152,-0.003341,-0.053153,-0.055750,8.295422,16.776871,0.668251,34.639221
2.550000,0.005914,0.001267,-0.004005,-0.071505,-0.086497,8.326642,17.383892,0.980721,34.722921
2.556000,0.008095,0.001498,-0.005892,-0.025521,-0.028482,8.309786,16.686114,0.849521,34.169433
2.560000,0.004855,0.001222,-0.003081,-0.047765,-0.057825,8.334022,17.220803,0.648595,34.284338
2.564000,0.005102,0.001262,-0.002948,-0.050377,-0.062788,8.360234,17.169308,1.152183,34.499951
2.568000,0.004505,0.001095,-0.002793,-0.036226,-0.090128,8.342251,17.179974,1.052078,34.489125
2.572000,0.003744,0.001139,-0.002756,-0.040497,-0.062264,8.349020,16.859076,1.058043,34.648799
2.576000,0.003928,0.000565,-0.002791,-0.054715,-0.064430,8.328651,17.242139,1.010105,34.305581
2.580000,0.002844,0.000541,-0.002130,-0.099219,-0.069988,8.312731,17.202824,0.950292,34.437718
2.586000,0.005027,0.000761,-0.003208,-0.082470,-0.039271,8.336373,17.012956,0.818524,34.701988
2.590000,0.002863,0.000219,-0.002751,-0.059154,-0.079471,8.332178,16.796475,0.760723,34.467407
2.594000,0.002244,0.000451,-0.001553,-0.038574,-0.084672,8.326109,17.380523,1.155685,34.214647
2.598000,0.002063,0.000211,-0.001547,-0.041065,-0.106958,8.325045,17.329947,1.212963,34.304584
2.602000,0.001309,0.000239,-0.001068,-0.067231,-0.070565,8.316091,16.583800,0.939363,34.747011
2.608000,0.002078,0.000546,-0.001684,-0.055816,-0.029000,8.319675,17.376069,0.785937,34.868322
2.612000,0.000938,-0.000020,-0.000905,-0.052708,-0.027522,8.315116,16.640280,0.883035,34.450408
2.616000,0.000455,0.000105,-0.000897,-0.021999,-0.067613,8.362137,17.291503,1.204217,34.714622
2.620000,0.000321,0.000145,-0.000484,-0.043466,-0.061507,8.324883,16.809296,1.120389,34.628857
2.624000,-0.000346,0.000015,-0.000288,-0.071175,-0.066173,8.344301,16.747519,0.555984,34.730759
2.628000,-0.000525,0.000226,-0.000273,-0.058862,-0.074091,8.321149,17.034769,0.706597,34.490692
2.634000,-0.000093,-0.000136,0.000168,-0.038580,-0.042995,8.312754,17.139625,0.938243,34.231786
2.638000,-0.000082,-0.000016,0.000110,-0.072071,-0.060043,8.357008,17.432766,1.147687,34.466167
2.642000,-0.000283,0.000115,-0.000116,-0.035483,-0.092935,8.320881,17.012643,1.023476,34.313155
2.646000,0.000212,0.000090,-0.000489,-0.077358,-0.073070,8.358558,17.131653,0.697939,34.517195
2.650000,0.000391,-0.000201,0.000478,-0.087272,-0.100296,8.309499,16.844385,0.738956,34.847826
2.656000,0.000709,-0.000367,0.000710,-0.052778,-0.055103,8.335027,17.080989,0.994402,34.143231
2.660000,0.000440,-0.000093,0.000223,-0.034860,-0.103146,8.350168,16.954586,1.043381,34.568123
2.664000,0.000894,-0.000163,0.000250,-0.064853,-0.052805,8.299520,16.654646,0.994567,34.601322
2.668000,0.000970,-0.000128,0.000233,-0.058452,-0.062749,8.349511,17.316989,0.828576,34.098735
2.672000,0.001218,-0.000198,0.000625,-0.090508,-0.066842,8.304323,16.877671,0.743616,34.672590
2.676000,0.001445,-0.000601,0.000244,-0.048329,-0.051733,8.352161,16.546397,0.868801,34.805297
2.682000,0.003290,-0.001053,0.000932,-0.069273,-0.048589,8.353648,17.071339,1.128277,34.214218
2.686000,0.002230,-0.000214,0.000935,-0.091610,-0.054855,8.345534,16.761360,1.232763,34.549991
2.690000,0.002147,-0.000810,0.000723,-0.063664,-0.091535,8.345221,17.090007,0.740732,34.549841
2.694000,0.002228,-0.000821,0.000851,-0.082607,-0.070632,8.325397,16.849456,1.185093,35.055892
2.698000,0.002316,-0.001032,0.000648,-0.043958,-0.079585,8.312402,17.163603,0.834409,34.042157
2.704000,0.004189,-0.001916,0.001222,-0.056327,-0.046504,8.372331,16.746118,1.256819,34.331852
2.708000,0.002895,-0.001437,0.001658,-0.088670,-0.060332,8.304297,16.999404,1.083833,34.815593
2.712000,0.003073,-0.001524,0.001590,-0.037678,-0.085503,8.312603,17.032612,0.879965,34.543703
2.716000,0.003321,-0.001757,0.001926,-0.070046,-0.067994,8.332724,16.950393,0.847731,34.609124
2.720000,0.004115,-0.001528,0.002141,-0.048359,-0.066427,8.299390,17.107227,1.369392,34.614199
2.724000,0.003708,-0.001618,0.001807,-0.043385,-0.067245,8.349632,17.293529,0.752754,34.630704
2.730000,0.005911,-0.002174,0.002547,-0.072258,-0.098279,8.325521,16.932777,1.035999,34.662004
2.734000,0.004075,-0.001773,0.001922,-0.031796,-0.062579,8.322181,17.081924,1.424059,34.804329
2.740000,0.005188,-0.001807,0.003026,-0.075416,-0.030197,8.305446,17.299383,1.108055,34.868797
2.744000,0.003188,-0.001675,0.001888,-0.072439,-0.054030,8.288782,16.795973,1.225146,34.337981
2.748000,0.003695,-0.001499,0.001533,-0.032060,-0.052803,8.344339,16.964305,1.069754,34.766418
2.752000,0.002859,-0.001485,0.001631,-0.046458,-0.068535,8.304769,16.850990,0.863162,34.547511
2.756000,0.002618,-0.001264,0.000915,-0.060495,-0.084855,8.336010,17.037505,1.126765,35.190577
2.760000,0.002522,-0.000805,0.000719,-0.041375,-0.035316,8.333703,17.154309,0.820925,34.278779
2.766000,0.003718,-0.001096,0.001385,-0.038965,-0.070952,8.316563,17.011012,0.781871,34.618548
2.770000,0.001973,-0.000716,0.001006,-0.048034,-0.072678,8.331635,17.160860,0.874014,34.910830
2.774000,0.001489,-0.000869,0.001313,-0.078954,-0.082601,8.339019,16.932213,0.940390,34.651488
2.778000,0.001172,-0.000693,0.000958,-0.039653,-0.084649,8.339729,17.245863,1.209664,34.610848
2.782000,0.001700,-0.000593,0.000712,-0.068255,-0.064373,8.354779,17.276552,0.835615,34.705122
2.788000,0.002104,-0.000769,0.001189,-0.041204,-0.048578,8.364696,17.248501,1.255457,34.206751
2.792000,0.001402,-0.000939,0.000557,-0.071647,-0.084448,8.311646,16.899560,1.122763,34.017312
2.796000,0.000932,-0.000360,0.000404,-0.062573,-0.112004,8.322024,17.169179,1.168490,34.417039
2.800000,0.000791,-0.000592,0.000210,-0.068401,-0.048686,8.333313,16.991600,0.757492,34.427556
2.804000,0.000208,-0.000510,-0.000118,-0.069518,-0.052578,8.340791,16.979644,0.832941,34.385885
2.810000,0.000364,-0.000458,0.000120,-0.072887,-0.074394,8.281334,17.022395,0.910021,34.889031
2.814000,-0.000087,-0.000229,0.000226,-0.079373,-0.079415,8.327702,16.998700,1.030870,34.416810
2.818000,-0.000097,0.000028,-0.000048,-0.076445,-0.074791,8.301499,16.961049,0.636227,34.225219
2.822000,-0.000637,-0.000018,-0.000319,-0.053932,-0.055863,8.334320,16.842102,0.999945,34.735284
2.826000,-0.000102,0.000086,-0.000318,-0.057137,-0.095516,8.313706,16.730408,0.858808,34.264621
2.832000,-0.000326,0.000095,-0.000116,-0.065601,-0.072573,8.327719,17.023697,1.171838,34.441870
2.836000,0.000067,0.000020,-0.000051,-0.028644,-0.048055,8.306294,17.065456,1.244977,34.616182
2.840000,-0.000346,-0.000058,-0.000296,-0.043707,-0.051520,8.309953,16.928181,0.995236,34.368529
2.846000,0.000567,0.000131,-0.000409,-0.040275,-0.067636,8.297776,17.155605,1.064036,34.264576
2.850000,0.000072,-0.000066,-0.000626,-0.048212,-0.060015,8.321616,17.108344,0.942185,34.632899
2.854000,0.000262,-0.000011,-0.000236,-0.058145,-0.078870,8.338510,17.234765,1.056910,34.469548
2.858000,0.000598,-0.000095,-0.000895,-0.058262,-0.060984,8.333408,17.254426,0.796898,34.273543
2.862000,0.000897,0.000227,-0.000915,-0.080674,-0.082332,8.281645,16.458993,0.951805,34.369682
2.866000,0.001045,-0.000144,-0.001021,-0.046001,-0.088699,8.328880,17.151228,0.585793,34.403261
2.872000,0.002010,0.000253,-0.001410,-0.049915,-0.052032,8.301929,17.165164,0.767565,34.606796
2.876000,0.001459,-0.000106,-0.001635,-0.058705,-0.030439,8.360775,16.967264,0.959994,34.642594
2.880000,0.001816,-0.000122,-0.002024,-0.037477,-0.057243,8.305940,17.258154,0.984553,34.371090
2.884000,0.001682,0.000085,-0.002113,-0.042896,-0.067168,8.337510,16.986336,1.089858,34.331158
2.888000,0.001444,-0.000013,-0.001985,-0.070146,-0.067410,8.329517,17.040275,0.893174,34.507985
2.892000,0.001764,-0.000001,-0.001888,-0.052417,-0.053897,8.314528,16.880136,0.611137,34.628211
2.898000,0.003784,-0.000178,-0.003067,-0.084461,-0.030954,8.376401,17.260348,0.623417,34.598931
2.902000,0.002693,0.000055,-0.002776,-0.048354,-0.090313,8.310616,17.283268,1.084092,34.447572
2.906000,0.002535,-0.000077,-0.003000,-0.047107,-0.036478,8.301750,16.892817,0.985477,34.575566
2.910000,0.002711,-0.000158,-0.003433,-0.059875,-0.059469,8.343641,17.093056,0.935812,34.319226
2.914000,0.002722,0.000136,-0.002916,-0.064299,-0.094851,8.338733,17.156009,1.061843,34.566489
2.920000,0.004901,-0.000452,-0.004589,-0.034673,-0.064808,8.334378,17.096011,1.295672,34.407454
2.926000,0.005226,0.000096,-0.005375,-0.066923,-0.080012,8.346904,17.321476,0.831861,34.741373
2.930000,0.003705,-0.000130,-0.003082,-0.049534,-0.052934,8.356496,17.312234,0.917575,34.847691
2.934000,0.003889,-0.000244,-0.003919,-0.078609,-0.073812,8.329392,17.165006,0.805861,34.455577
2.938000,0.003910,0.000174,-0.004215,-0.068721,-0.046747,8.322428,17.292845,1.153571,34.323814
2.940000,0.001507,-0.000168,-0.002353,-0.077348,-0.061151,8.329642,17.047805,1.015351,34.429836
2.946000,0.006438,0.000191,-0.005359,-0.038491,-0.054322,8.335506,17.528842,1.022450,34.515702
2.952000,0.006221,-0.000309,-0.006374,-0.050867,-0.065827,8.311765,17.304051,0.908396,34.721646
2.956000,0.004974,0.000071,-0.003614,-0.051503,-0.068572,8.360281,16.753308,0.892321,34.729651
2.960000,0.004732,-0.000009,-0.003591,-0.030261,-0.048926,8.333838,17.377108,0.831665,34.356089
2.964000,0.004524,-0.000297,-0.005075,-0.059088,-0.086955,8.321848,17.183949,0.861611,34.475734
2.968000,0.004692,-0.000050,-0.004393,-0.055266,-0.056730,8.335675,17.243469,0.877796,34.148799
2.972000,0.004103,0.000073,-0.003196,-0.038734,-0.075167,8.312433,16.823945,0.985354,34.168436
2.978000,0.006709,-0.000137,-0.005485,-0.028050,-0.045429,8.318327,17.017365,0.716573,34.843338
2.982000,0.004241,-0.000186,-0.003166,-0.059458,-0.062895,8.326843,17.491766,0.781730,34.576824
2.986000,0.003694,0.000023,-0.003572,-0.047766,-0.009576,8.330033,16.889597,0.926784,34.874792
2.990000,0.003826,-0.000125,-0.003483,-0.043930,-0.094562,8.316429,16.984727,0.932060,34.345730
2.994000,0.003366,-0.000267,-0.002753,-0.032503,-0.052322,8.237703,17.295487,0.359157,34.441973
2.998000,0.003265,0.000118,-0.003076,-0.043691,-0.021638,8.285961,17.065807,0.861167,34.693637
3.004000,0.005429,-0.000027,-0.004478,-0.026642,-0.116020,8.345120,17.306223,0.717571,34.930563
3.008000,0.003312,0.000071,-0.002743,-0.057451,-0.107392,8.335202,16.800446,1.238536,34.556086
3.012000,0.002629,-0.000004,-0.002995,-0.034069,-0.052573,8.337999,16.977600,0.911992,34.520750
3.016000,0.002546,-0.000376,-0.003608,-0.065562,-0.097349,8.340157,17.114837,0.814208,34.482097
3.022000,0.004115,0.000202,-0.003082,-0.021984,-0.036893,8.286122,16.926178,0.758193,34.369700
3.024000,0.000669,-0.000221,-0.001416,-0.087804,-0.076698,8.294085,16.853136,0.911552,34.610456
3.030000,0.003233,0.000040,-0.003728,-0.056365,-0.051589,8.297366,17.097931,1.373592,34.101264
3.034000,0.002101,-0.000038,-0.002373,-0.041584,-0.047322,8.315153,17.165096,0.994935,34.684252
3.038000,0.002124,-0.000055,-0.001570,-0.060729,-0.098679,8.319506,17.212714,0.962335,34.560354
3.042000,0.001952,-0.000025,-0.001164,-0.057100,-0.055886,8.333846,16.931339,1.112722,34.165102
3.048000,0.002701,0.000043,-0.001939,-0.052323,-0.064520,8.331977,17.224342,0.990562,34.433231
3.050000,0.000470,0.000125,-0.000566,-0.037046,-0.061090,8.332610,17.029870,0.964491,34.777002
3.056000,0.001574,0.000041,-0.001581,-0.061005,-0.072145,8.336749,17.697615,1.230523,34.418148
3.060000,0.000729,-0.000104,-0.001137,-0.068442,-0.051284,8.326776,17.196011,1.125435,34.348810
3.064000,0.000779,-0.000043,-0.001486,-0.063372,-0.065653,8.315960,16.831785,0.983756,34.682648
3.068000,0.000735,0.000210,-0.000447,-0.090435,-0.051283,8.330875,16.764139,0.857217,34.637369
3.074000,0.001024,-0.000244,-0.000800,-0.040108,-0.069677,8.364425,17.082730,1.269181,34.255115
3.078000,0.000315,0.000230,-0.000001,-0.064906,-0.076588,8.306169,17.527819,0.700089,34.136107
3.082000,0.000165,-0.000076,-0.000482,-0.092208,-0.028025,8.353852,17.063325,0.777909,34.519562
3.088000,0.000324,-0.000088,-0.000195,-0.045128,-0.076980,8.362729,17.060485,0.958829,34.364723
3.090000,-0.000392,0.000063,-0.000110,-0.064333,-0.064340,8.355187,17.158044,0.935388,34.739647
3.094000,-0.000331,0.000280,-0.000021,-0.043962,-0.014535,8.331221,17.039911,0.810658,34.201887
3.098000,-0.000087,-0.000045,-0.000102,-0.065251,-0.071249,8.288963,17.041516,0.752005,34.266949
3.104000,-0.000157,0.000053,-0.000308,-0.062862,-0.035830,8.338281,17.176294,0.654071,34.799093
3.108000,-0.000452,0.000194,-0.000157,-0.056840,-0.078978,8.330781,17.105425,0.988078,34.327683
3.112000,-0.000729,0.000092,-0.000162,-0.036828,-0.050246,8.329568,17.221912,0.995906,34.394859
3.116000,-0.000537,0.000082,0.000241,-0.073321,-0.041454,8.263053,17.113148,0.672209,34.211987
3.120000,-0.000629,-0.000146,0.000085,-0.049522,-0.007123,8.295791,16.858877,1.063682,34.526398
3.126000,-0.001108,-0.000097,0.000005,-0.062105,-0.059139,8.316878,17.276798,0.818974,34.637733
3.130000,-0.001002,0.000072,0.000091,-0.036340,-0.049478,8.329277,17.052771,0.814416,34.601254
3.136000,-0.001327,-0.000313,0.000882,-0.041149,-0.058703,8.390326,17.062046,0.874677,34.535093
3.140000,-0.001105,0.000052,0.000859,-0.054173,-0.055134,8.291716,17.049813,0.966076,34.447516
3.142000,-0.000776,-0.000385,0.000402,-0.068170,-0.035953,8.299277,16.823418,1.009985,34.372332
3.148000,-0.001473,-0.000247,0.001485,-0.100708,-0.058478,8.353846,16.878298,0.948932,34.668380
3.152000,-0.001416,-0.000152,0.001068,-0.056342,-0.065947,8.288731,17.110656,0.892730,34.416886
3.156000,-0.001135,-0.000465,0.001470,-0.048061,-0.045865,8.290279,17.197464,0.533081,34.680546
3.162000,-0.001843,-0.000405,0.002376,-0.034288,-0.043812,8.349038,16.714001,0.721751,34.427829
3.166000,-0.001948,-0.000625,0.001228,-0.045378,-0.046128,8.336706,17.493221,1.317279,34.662978
3.170000,-0.001569,-0.000423,0.001385,-0.039617,-0.096028,8.295938,17.143892,0.635050,34.557044
3.174000,-0.002350,-0.000960,0.001312,-0.071939,-0.062045,8.334033,16.969525,0.836094,34.556613
3.178000,-0.002486,-0.000502,0.001656,-0.050534,-0.036976,8.349365,16.984649,1.160476,34.153791
3.182000,-0.002308,-0.000389,0.001786,-0.074660,-0.054760,8.309110,17.089922,0.823224,34.447828
3.188000,-0.003301,-0.001044,0.003203,-0.060828,-0.053184,8.257472,17.134321,0.776685,34.558325
3.192000,-0.002211,-0.000366,0.002311,-0.008399,-0.048318,8.314194,17.034786,0.864240,34.436008
3.196000,-0.002617,-0.000761,0.001737,-0.018131,-0.066824,8.328878,17.046029,0.843122,34.527993
3.200000,-0.002262,-0.000519,0.001871,-0.066799,-0.026574,8.324089,17.022293,0.872875,34.832890
3.204000,-0.002964,-0.000532,0.002393,-0.053943,-0.035703,8.338005,17.155976,0.916365,34.554668
3.208000,-0.002847,-0.000697,0.002788,-0.058030,-0.037674,8.377393,16.878258,0.905389,34.464867
3.214000,-0.004032,-0.000839,0.004611,-0.050505,-0.057837,8.329647,16.836015,1.063310,34.429080
3.220000,-0.004382,-0.000825,0.003733,-0.030454,-0.072413,8.320594,17.007864,0.878280,35.096535
3.222000,-0.001952,-0.000530,0.001049,-0.087862,-0.084260,8.315765,16.948767,0.588988,34.218184
3.226000,-0.003330,-0.000881,0.002753,-0.057958,-0.024820,8.337014,17.222843,1.244382,34.395019
3.232000,-0.004595,-0.000892,0.005042,-0.075192,-0.075318,8.353927,17.323099,1.128824,34.489823
3.236000,-0.003354,-0.001184,0.002935,-0.034043,-0.060177,8.317283,17.026701,1.020156,34.695306
3.242000,-0.005453,-0.001554,0.004711,-0.034023,-0.080951,8.334111,17.153660,0.853867,34.492608
3.246000,-0.003448,-0.001019,0.003931,-0.010845,-0.056888,8.310567,17.458981,1.031936,34.693592
3.250000,-0.003759,-0.001229,0.003300,-0.048355,-0.070625,8.298095,17.181475,1.035477,34.546982
3.254000,-0.004215,-0.001123,0.002605,-0.042456,-0.038742,8.319937,17.250519,1.120525,34.576819
3.258000,-0.004444,-0.001143,0.003353,-0.064160,-0.080813,8.323183,16.944144,1.055535,34.513008
3.262000,-0.003955,-0.000832,0.004498,-0.067864,-0.081937,8.364361,17.018551,1.496506,34.229366
3.268000,-0.006017,-0.001511,0.004516,-0.047066,-0.050205,8.344020,17.262831,0.813099,34.551067
3.272000,-0.004053,-0.000841,0.004286,-0.040896,-0.070206,8.331702,17.573161,0.793060,34.386288
3.276000,-0.004280,-0.000810,0.004691,-0.061841,-0.053171,8.333096,17.075063,0.814354,34.696026
3.280000,-0.004768,-0.001116,0.003876,-0.064095,-0.088970,8.329155,16.975624,1.102675,34.269574
3.284000,-0.004553,-0.001375,0.004222,-0.060454,-0.100430,8.336443,16.730705,0.931666,34.223395
3.288000,-0.003950,-0.001272,0.004309,-0.036829,-0.011457,8.318318,17.371492,0.680228,34.325592
3.294000,-0.006141,-0.002415,0.005590,-0.067077,-0.085010,8.330413,17.159027,0.860779,34.232842
3.298000,-0.004139,-0.000821,0.004018,-0.052107,-0.079130,8.322679,17.472478,0.779954,34.487519
3.304000,-0.005629,-0.001750,0.005706,-0.096027,-0.044271,8.310666,17.039429,1.108631,34.614306
3.308000,-0.004033,-0.000956,0.002527,-0.056796,-0.091848,8.314464,16.920582,0.908306,34.481464
3.310000,-0.001718,-0.000417,0.001535,-0.061724,-0.063358,8.335880,17.224214,0.745670,34.913966
3.316000,-0.005313,-0.001105,0.005588,-0.027032,-0.048528,8.345608,16.933832,0.967974,34.301632
3.320000,-0.003636,-0.000931,0.002735,-0.026859,-0.051931,8.325466,16.830133,0.800525,34.338085
3.324000,-0.003340,-0.000784,0.002493,-0.035646,-0.041885,8.339284,17.000533,0.779784,34.659026
3.328000,-0.003251,-0.000815,0.004001,-0.085299,-0.080590,8.320664,16.929622,0.795495,34.449273
3.332000,-0.003071,-0.000990,0.002901,-0.040217,-0.064149,8.349130,17.271879,1.008491,34.505726
3.338000,-0.004051,-0.001656,0.002990,-0.029362,-0.039668,8.350515,16.804753,0.746194,34.278543
3.342000,-0.003109,-0.000719,0.003146,-0.076770,-0.054214,8.313956,17.332720,1.067938,34.358803
3.346000,-0.003423,-0.001177,0.002573,-0.089073,-0.069850,8.352918,16.972389,0.806101,34.354066
3.350000,-0.002469,-0.000571,0.001785,-0.046510,-0.023442,8.329780,17.169889,0.909263,34.925649
3.354000,-0.002142,-0.000732,0.001794,-0.006418,-0.060613,8.326659,17.322203,1.216551,34.653999
3.360000,-0.003577,-0.000748,0.003408,-0.081550,-0.041914,8.316081,16.999998,1.078731,34.457418
3.364000,-0.002982,-0.000354,0.002185,-0.068786,-0.038567,8.349561,17.395572,1.040904,34.575152
3.368000,-0.001804,-0.000471,0.001942,-0.032898,-0.071758,8.325178,17.106039,1.297929,34.248362
3.372000,-0.002009,-0.000458,0.001708,-0.056920,-0.048736,8.357532,17.435770,0.926422,34.253663
3.376000,-0.001595,-0.000552,0.001316,-0.048273,-0.024739,8.344297,16.936770,0.643964,34.650468
3.380000,-0.002131,-0.000458,0.001191,-0.060415,-0.047915,8.360605,16.881722,0.994145,34.743027
3.386000,-0.002939,-0.000461,0.002646,-0.015373,-0.040784,8.326724,16.952355,0.909435,34.273394
3.390000,-0.002121,-0.000459,0.001535,-0.060022,-0.053165,8.359960,17.007068,1.456613,34.674347
3.394000,-0.001806,-0.000476,0.001385,-0.046892,-0.055668,8.327242,17.030951,0.842550,34.516237
3.400000,-0.002179,-0.001032,0.001507,-0.062216,-0.068168,8.328937,17.107152,0.879281,34.626508
3.404000,-0.001470,-0.000097,0.000784,-0.020958,-0.069775,8.327267,16.898422,0.775137,34.595710
3.408000,-0.001119,-0.000679,0.000809,-0.073032,-0.050522,8.353764,16.857049,1.100040,34.521602
3.412000,-0.000922,-0.000407,0.000981,-0.022812,-0.060895,8.337787,16.730098,0.980514,34.199674
3.416000,-0.001465,-0.000147,0.001200,-0.058661,-0.054388,8.332537,17.215859,0.911249,34.880946
3.420000,-0.000698,-0.000514,0.000689,-0.054373,-0.062273,8.335318,17.288745,0.754704,34.134984
3.426000,-0.001431,-0.000551,0.001409,-0.061460,-0.069981,8.360633,16.936960,0.723499,34.875996
3.430000,-0.001063,-0.000194,0.000698,-0.000867,-0.089406,8.300809,17.080474,1.138432,34.469336
3.434000,-0.000791,0.000012,0.000815,-0.074823,-0.067222,8.344268,17.047851,0.952176,34.737432
3.436000,-0.000798,-0.000152,0.000177,-0.043597,-0.061689,8.336871,17.142520,0.754665,34.836831
3.436000,-0.000205,0.000010,-0.000107,-0.069474,-0.070081,8.325800,17.026071,0.870608,33.979123
3.442000,-0.001044,-0.000083,0.000458,-0.087461,-0.088602,8.303590,17.204718,0.977675,34.543493
3.446000,-0.000536,0.000063,-0.000066,-0.040110,-0.060246,8.338527,17.004882,0.847360,34.453045
3.452000,-0.000128,-0.000012,-0.000065,-0.092612,-0.095105,8.339579,17.171726,1.081322,34.479733
3.456000,-0.000290,0.000207,-0.000132,-0.111554,-0.040497,8.289440,17.265284,0.942976,34.427116
3.460000,-0.000074,-0.000131,-0.000029,-0.038513,-0.083106,8.347356,17.120714,0.696306,34.569081
3.464000,-0.000149,0.000126,-0.000102,0.009167,-0.111022,8.340227,16.785356,0.760217,34.135344
3.468000,-0.000405,-0.000043,0.000533,-0.091982,-0.056585,8.322036,17.048737,1.268256,34.501699
3.472000,-0.000133,-0.000063,-0.000758,-0.052903,-0.083572,8.341945,17.206471,1.411384,34.602094
3.478000,-0.000570,-0.000029,-0.000232,-0.084725,-0.040164,8.317953,16.935060,0.837252,34.524377
3.482000,-0.000483,0.000055,-0.000576,-0.083805,-0.033049,8.324848,16.960543,0.850635,34.714070
3.486000,-0.000459,-0.000118,-0.000177,-0.017051,-0.040589,8.310112,17.280184,0.640848,34.366623
3.490000,-0.000715,-0.000182,-0.000391,-0.057226,-0.062793,8.356982,16.993114,1.073504,34.744461
3.496000,-0.000761,-0.000001,-0.000658,-0.046691,-0.061698,8.322175,17.603055,0.868324,34.444150
3.498000,-0.000408,0.000081,-0.000435,-0.056536,-0.038954,8.326280,17.195878,0.826599,34.497095
3.504000,-0.001051,-0.000314,-0.000748,-0.063472,-0.076670,8.315039,17.002563,0.452886,34.547978
3.508000,-0.000711,-0.000024,-0.000679,-0.083779,-0.080434,8.356420,17.047389,1.202847,34.525295
3.514000,-0.001195,0.000097,-0.001068,-0.059675,-0.051132,8.276223,16.840776,0.908145,34.121385
3.518000,-0.000986,-0.000236,-0.001388,-0.044041,-0.068615,8.316498,16.849248,1.080282,34.476580
3.520000,-0.000777,0.000061,-0.000610,-0.051854,-0.075379,8.283379,17.260256,0.578864,34.477526
3.520000,-0.000209,-0.000014,-0.000072,-0.036906,-0.060481,8.319875,16.990919,1.141947,34.653849
3.526000,-0.001483,-0.000258,-0.001254,-0.074978,-0.095062,8.330720,17.206290,1.254667,34.453312
3.532000,-0.001541,0.000064,-0.000939,-0.022964,-0.061373,8.298323,17.339755,0.756396,34.315999
3.536000,-0.001495,-0.000181,-0.000810,-0.050954,-0.066590,8.343628,17.227580,0.667532,34.634580
3.540000,-0.001588,0.000055,-0.001042,-0.043259,-0.125768,8.337200,17.102073,1.163798,34.512787
3.544000,-0.001592,-0.000207,-0.001181,-0.075720,-0.094276,8.322405,17.093380,1.055295,34.396565
3.548000,-0.001657,0.000092,-0.001124,-0.047202,-0.098741,8.340413,16.946510,1.048457,34.518598
3.552000,-0.001994,-0.000345,-0.002192,-0.040084,-0.064769,8.308710,17.004138,0.941003,34.831423
3.558000,-0.002502,-0.000297,-0.002255,-0.075215,-0.045107,8.295733,16.997291,0.865838,34.195261
3.562000,-0.001689,0.000114,-0.000944,-0.034006,-0.069175,8.324273,17.074463,1.083183,34.685322
3.566000,-0.001622,-0.000219,-0.001626,-0.089905,-0.068850,8.338578,17.103496,1.140684,34.665090
3.570000,-0.001406,-0.000136,-0.001420,-0.082405,-0.055877,8.328000,17.297080,1.146096,34.826674
3.574000,-0.001830,0.000026,-0.001689,-0.068440,-0.048756,8.281798,17.049960,0.700668,34.652087
3.578000,-0.002103,-0.000348,-0.002090,-0.048455,-0.033400,8.355241,17.233075,1.258666,34.771047
3.584000,-0.003157,-0.000134,-0.002941,-0.047580,-0.072238,8.313385,17.457515,1.075395,34.568281
3.588000,-0.002225,-0.000235,-0.001264,-0.061541,-0.055258,8.309928,16.815911,1.015129,34.417748
3.592000,-0.001877,0.000048,-0.001238,-0.040162,-0.023267,8.324957,17.123470,0.966113,34.615085
3.596000,-0.002140,-0.000264,-0.002415,-0.082535,-0.093462,8.341864,17.063997,1.135636,33.999561
3.600000,-0.002364,-0.000278,-0.002157,-0.056622,-0.048738,8.315445,17.119384,1.187005,34.884457
3.604000,-0.002628,0.000016,-0.001849,-0.038666,-0.069692,8.311435,17.223797,1.279723,34.556734
3.610000,-0.004379,-0.000434,-0.002661,-0.063486,-0.090778,8.366319,17.083386,1.056708,34.523556
3.614000,-0.002824,-0.000120,-0.002582,-0.057337,-0.053733,8.315379,16.932124,0.855250,34.309907
3.618000,-0.002351,-0.000304,-0.002207,-0.076595,-0.071517,8.348410,17.184678,0.956552,34.454746
3.622000,-0.002557,-0.000082,-0.002420,-0.065880,-0.084435,8.329340,16.973716,1.051489,34.674517
3.626000,-0.003020,-0.000196,-0.002217,-0.045309,-0.033848,8.333338,16.865117,0.705862,34.708044
3.630000,-0.002982,-0.000020,-0.002461,-0.042383,-0.052564,8.302955,16.817991,1.059193,34.835665
3.636000,-0.004538,-0.000321,-0.004519,-0.074779,-0.089070,8.299343,17.394915,1.095570,34.660702
3.642000,-0.004256,-0.000536,-0.003494,-0.039295,-0.061502,8.327808,17.516870,0.503346,34.434665
3.644000,-0.001844,0.000287,-0.001085,-0.107622,-0.025958,8.308172,17.246463,0.887945,34.762992
3.648000,-0.003785,-0.000512,-0.003474,-0.013951,-0.096748,8.309823,17.075473,0.978035,34.471202
3.652000,-0.003418,-0.000244,-0.003101,-0.099733,-0.060333,8.303999,16.982422,0.846999,34.576352
3.658000,-0.004972,-0.000295,-0.003460,-0.076937,-0.095472,8.341879,16.933901,1.135605,34.649951
3.662000,-0.003593,0.000024,-0.003788,-0.040952,-0.031373,8.312378,17.294933,0.734246,34.196697
3.668000,-0.005202,-0.000581,-0.004233,-0.050865,-0.094077,8.319448,17.082389,1.509794,34.768030
3.670000,-0.001702,-0.000016,-0.001122,-0.065737,-0.058765,8.346712,16.976385,1.032961,34.664261
3.674000,-0.003648,-0.000232,-0.003592,-0.035281,-0.085240,8.346338,16.819600,1.214801,34.491826
3.680000,-0.005818,-0.000123,-0.004955,-0.056147,-0.074981,8.311917,17.065768,0.955057,34.744591
3.684000,-0.004099,-0.000407,-0.002761,-0.066532,-0.033434,8.332403,16.937809,0.621255,34.586288
3.688000,-0.003900,-0.000047,-0.003852,-0.051714,-0.073977,8.375525,16.689585,0.891851,34.752730
3.694000,-0.005831,-0.000168,-0.004074,-0.028912,-0.083417,8.320686,17.194892,1.150166,34.643591
3.696000,-0.002468,-0.000080,-0.001929,-0.059541,-0.066012,8.312064,17.547710,0.835828,34.600775
3.702000,-0.005981,-0.000526,-0.005771,-0.046352,-0.039868,8.299715,16.999000,1.133068,34.512191
3.706000,-0.004400,0.000033,-0.003284,-0.077948,-0.079033,8.317396,17.414542,0.846091,34.795160
3.712000,-0.007146,-0.000664,-0.005426,-0.014877,-0.049326,8.345245,17.197752,0.941496,34.628549
3.716000,-0.003981,-0.000144,-0.003866,-0.060499,-0.075425,8.296931,17.133829,1.016054,34.484190
3.720000,-0.004258,-0.000134,-0.003248,-0.039398,-0.059887,8.352134,16.948343,0.882568,34.199780
3.724000,-0.003797,-0.000234,-0.003363,-0.059404,-0.072770,8.329632,17.245738,0.708870,34.482113
3.728000,-0.003946,-0.000492,-0.003429,-0.037149,-0.099682,8.341045,17.208448,1.108253,34.182122
3.732000,-0.004217,-0.000098,-0.003265,-0.055541,-0.091516,8.284168,17.065917,1.034771,34.534042
3.738000,-0.006027,-0.000422,-0.004349,-0.057861,-0.041171,8.359971,17.342614,0.787361,34.129247
3.742000,-0.003687,-0.000014,-0.003794,-0.047940,-0.030918,8.325337,17.239786,0.841973,34.185219
3.746000,-0.003761,-0.000327,-0.003236,-0.035868,-0.079699,8.315826,17.053184,1.182234,34.280622
3.750000,-0.003811,-0.000291,-0.002661,-0.068739,-0.112269,8.352155,17.533810,0.783412,34.540746
3.754000,-0.003407,-0.000350,-0.003127,-0.068000,-0.086986,8.302409,16.848944,0.952620,34.498196
3.758000,-0.003389,0.000032,-0.002903,-0.059180,-0.035373,8.368421,16.796860,1.488758,34.428540
3.764000,-0.004943,-0.000315,-0.004160,-0.088535,-0.078238,8.305345,16.988600,1.130652,34.873486
3.768000,-0.003876,-0.000050,-0.003376,-0.035110,-0.065433,8.313366,17.300888,0.712264,34.565172
3.772000,-0.003313,-0.000283,-0.002267,-0.053563,-0.080941,8.358752,16.721462,1.117114,34.208917
3.776000,-0.003086,-0.000148,-0.002765,-0.043989,-0.057904,8.272425,16.929202,0.942558,34.609673
3.782000,-0.004420,-0.000579,-0.004793,-0.056341,-0.029545,8.352942,17.033753,1.235567,34.663244
3.786000,-0.003339,0.000015,-0.001549,-0.092238,-0.077976,8.301973,17.208234,0.705716,34.851311
3.790000,-0.002885,-0.000189,-0.002806,-0.020480,-0.066821,8.310719,16.929339,1.277118,34.913495
3.794000,-0.002284,-0.000222,-0.003429,-0.054283,-0.124391,8.304324,17.182854,1.141129,33.929949
3.798000,-0.003049,0.000033,-0.001911,-0.054234,-0.054856,8.287056,17.046523,1.154372,34.702010
3.802000,-0.002904,-0.000206,-0.002127,-0.062646,-0.051640,8.296933,16.849136,0.885199,34.035243
3.806000,-0.002980,-0.000378,-0.002887,-0.050324,-0.070763,8.360770,17.163736,0.578744,34.741665
3.812000,-0.003566,-0.000064,-0.003454,-0.059581,-0.075666,8.343440,17.312038,0.849942,34.624301
3.816000,-0.002219,-0.000159,-0.001657,-0.081677,-0.076725,8.317011,17.042382,0.987760,34.302838
3.822000,-0.003710,-0.000308,-0.003149,-0.057723,-0.055281,8.337375,17.204168,0.624684,34.171309
3.826000,-0.002647,-0.000137,-0.002532,-0.070011,-0.069714,8.356254,17.060771,0.899986,34.576311
3.830000,-0.002055,-0.000109,-0.002063,-0.071674,-0.069606,8.322305,16.959142,1.303834,34.554790
3.834000,-0.002177,-0.000028,-0.001581,-0.056178,-0.105481,8.354647,17.129146,0.978355,34.717067
3.838000,-0.001992,-0.000240,-0.001886,-0.070511,-0.051969,8.313670,17.195291,1.025384,34.665627
3.842000,-0.002073,-0.000171,-0.002315,-0.067502,-0.048259,8.346241,16.732818,0.595868,34.509174
3.848000,-0.003143,-0.000294,-0.002982,-0.050669,-0.057470,8.320381,17.046296,1.051604,34.527670
3.850000,-0.001611,0.000058,-0.000980,-0.055045,-0.086207,8.344430,17.196480,0.699779,34.521747
3.856000,-0.002941,0.000007,-0.001748,-0.068856,-0.043010,8.319831,16.826022,1.014003,34.161960
3.860000,-0.002054,-0.000068,-0.001595,-0.054456,-0.057721,8.326681,17.151501,0.656292,34.449933
3.866000,-0.002422,-0.000352,-0.002717,-0.060861,-0.073699,8.344223,17.256862,0.982973,34.206753
3.870000,-0.001279,-0.000078,-0.002064,-0.068216,-0.075677,8.326407,16.954920,0.649886,34.197289
3.874000,-0.001433,-0.000029,-0.001364,-0.037414,-0.075188,8.362662,17.107135,1.046973,34.608680
3.878000,-0.001192,-0.000013,-0.001163,-0.058002,-0.078002,8.322751,17.200571,0.936653,34.471124
3.882000,-0.001891,-0.000227,-0.000762,-0.081384,-0.094170,8.315499,16.877780,0.853962,34.269213
3.886000,-0.001648,0.000299,-0.001470,-0.031939,-0.073982,8.316427,16.921652,0.955760,34.501103
3.892000,-0.002096,-0.000129,-0.001280,-0.030104,-0.042098,8.351513,17.674938,0.679159,34.499693
3.896000,-0.001357,-0.000007,-0.000910,-0.072035,-0.083401,8.362772,16.810217,0.863609,34.456924
3.900000,-0.000643,-0.000040,-0.001689,-0.049968,-0.078826,8.340684,17.247288,0.851723,34.486929
3.904000,-0.001234,-0.000055,-0.000877,-0.034513,-0.084987,8.330624,17.001632,0.668327,34.398150
3.908000,-0.001002,0.000208,-0.001091,-0.036146,-0.096888,8.326448,17.010932,0.952416,34.631478
3.912000,-0.000747,-0.000008,-0.000950,-0.077296,-0.093344,8.314844,17.039330,0.889571,34.192263
3.916000,-0.000873,0.000231,-0.000877,-0.045209,-0.080027,8.313124,17.188491,0.804031,34.667737
3.922000,-0.001022,-0.000225,-0.000657,-0.053780,-0.096690,8.334845,17.338167,0.901804,34.326635
3.928000,-0.001084,0.000168,-0.000352,-0.032011,-0.075188,8.322113,17.081311,1.005070,34.463008
3.930000,-0.000487,0.000081,-0.000647,-0.047296,-0.114505,8.337023,16.975855,1.046436,34.619661
3.934000,-0.000591,-0.000015,-0.000550,0.007725,-0.076088,8.323797,17.017819,0.619170,34.611717
3.938000,-0.000357,0.000204,-0.000716,-0.039831,-0.040445,8.345858,16.936689,0.979131,34.552922
3.944000,-0.000689,-0.000102,-0.000504,-0.098285,-0.062278,8.378060,16.720629,0.953401,34.622917
3.948000,-0.000344,0.000141,-0.000367,-0.042271,-0.096927,8.331882,17.207285,0.960371,34.142879
3.954000,-0.000045,0.000227,0.000196,-0.080650,-0.048784,8.306924,17.330555,1.016924,34.291977
3.956000,0.000110,0.000033,-0.000548,-0.053329,-0.090930,8.315180,16.932748,0.982339,34.654769
3.962000,-0.000437,0.000076,-0.000416,-0.024858,-0.071557,8.314923,16.990509,1.096808,34.178416
3.966000,-0.000378,0.000150,-0.000437,-0.077921,-0.111392,8.300968,16.883670,0.540035,34.350919
3.970000,-0.000004,-0.000109,-0.000274,-0.052564,-0.053879,8.314900,17.375075,1.334219,34.568990
3.974000,-0.000349,0.000177,0.000116,-0.023156,-0.088120,8.321399,16.961526,0.895017,34.614994
3.980000,-0.000743,-0.000333,0.000865,-0.076580,-0.053694,8.368494,16.783465,0.827263,34.800218
3.984000,-0.001019,-0.000408,0.000221,-0.090320,-0.080681,8.351702,16.883191,0.793105,34.526288
3.988000,-0.000959,-0.000203,0.000605,-0.083959,-0.062300,8.350829,17.139253,0.816831,34.538553
3.994000,-0.001607,-0.000911,0.001639,-0.053173,-0.062677,8.361706,17.201968,1.314811,34.499342
3.996000,-0.000709,-0.000387,-0.000040,-0.015446,-0.075040,8.315464,17.076956,1.231112,34.417833
4.000000,-0.001339,-0.000944,0.001558,-0.073251,-0.054127,8.298538,16.829916,0.984779,34.730899
4.006000,-0.002119,-0.001871,0.002515,-0.059727,-0.071822,8.316056,17.154898,0.917418,34.244400
4.010000,-0.001488,-0.001810,0.002355,-0.048929,-0.022224,8.323746,17.074363,1.173331,34.285558
4.014000,-0.001329,-0.001823,0.002442,-0.063285,-0.053501,8.331029,17.038738,0.860759,34.388771
4.018000,-0.001443,-0.002132,0.003070,-0.025407,-0.070696,8.321189,17.133979,1.020414,34.606425
4.024000,-0.002198,-0.002957,0.005106,-0.090295,-0.106746,8.289182,16.898467,0.617253,34.573388
4.028000,-0.001905,-0.001702,0.004139,-0.046618,-0.101613,8.351515,16.989453,1.287979,34.885783
4.032000,-0.002158,-0.001983,0.004751,-0.053586,-0.079135,8.309182,17.470755,0.752081,34.632274
4.036000,-0.002077,-0.002403,0.004488,-0.041564,-0.090497,8.306328,17.255394,1.078713,34.454141
4.040000,-0.001867,-0.001889,0.004027,-0.030082,-0.067182,8.321460,17.334334,0.932169,34.546966
4.046000,-0.001916,-0.002569,0.006173,-0.041017,-0.074210,8.333920,16.792028,1.055620,34.471934
4.050000,-0.001422,-0.001288,0.003209,-0.070374,-0.032685,8.314509,17.178057,0.976283,34.556867
4.054000,-0.001052,-0.001167,0.002889,-0.022483,-0.078270,8.342471,17.079900,1.082192,34.483604
4.060000,-0.001879,-0.001989,0.004097,-0.038981,-0.051396,8.309246,16.808669,1.039715,34.365922
4.064000,-0.001239,-0.001159,0.002746,-0.032054,-0.037326,8.320980,16.834082,0.732807,34.576284
4.068000,-0.001551,-0.000999,0.001968,-0.053005,-0.085159,8.319211,17.070783,0.518534,34.447710
4.072000,-0.001082,-0.001114,0.001114,-0.019153,-0.094884,8.307199,17.314817,0.842240,34.489661
4.076000,-0.000962,-0.000782,0.001732,-0.021150,-0.062068,8.368952,17.290627,1.082193,34.718329
4.080000,-0.000923,-0.000257,0.000637,-0.062703,-0.072141,8.312874,16.555595,1.262736,34.644066
4.084000,-0.000683,-0.000275,0.000200,-0.050716,-0.110477,8.340008,17.564025,0.777942,34.181692
4.088000,-0.000613,-0.000325,0.000163,-0.047068,-0.075879,8.318325,17.091261,0.875519,34.647335
4.094000,-0.000596,0.000016,-0.000006,-0.071629,-0.060058,8.302582,17.296976,0.911681,34.475024
4.098000,-0.000115,0.000015,-0.001111,-0.043263,-0.032900,8.356151,17.190596,0.879176,34.455893
4.104000,-0.000012,0.000086,-0.000758,-0.083932,-0.085547,8.334695,17.289711,1.171313,34.730219
4.108000,-0.000022,0.000304,-0.000579,-0.055007,-0.102937,8.333966,17.057458,0.516405,34.492848
4.112000,-0.000035,-0.000073,-0.000604,-0.053785,-0.036113,8.321090,16.943865,0.903697,34.392098
4.116000,-0.000117,0.000151,-0.000539,-0.030032,-0.100262,8.305467,17.085894,0.728488,34.274652
4.120000,0.000936,0.000891,-0.001127,-0.039057,-0.052823,8.306891,17.325344,0.742112,34.521499
4.124000,0.001052,0.000605,-0.000726,-0.053138,-0.102491,8.322542,17.273614,1.105276,34.674594
4.128000,0.001335,0.001161,-0.001082,-0.036782,-0.083351,8.321175,17.147928,1.068882,34.786058
4.134000,0.003485,0.002179,-0.000715,-0.076505,-0.087533,8.361648,17.171188,0.575977,34.419821
4.138000,0.002750,0.002215,-0.000483,-0.052324,-0.094574,8.319850,17.223174,0.809523,34.833902
4.142000,0.002956,0.002429,-0.000890,-0.086083,-0.094709,8.353627,17.076522,0.947233,34.738614
4.146000,0.003393,0.002782,-0.001015,-0.056832,-0.036014,8.324275,17.053104,0.965315,34.695311
4.150000,0.003869,0.003295,-0.000486,-0.054790,-0.061082,8.272307,16.804256,0.876958,34.682030
4.154000,0.004651,0.003147,-0.001106,-0.050032,-0.074831,8.356163,17.100123,1.215335,34.218863
4.160000,0.007373,0.004770,-0.001348,-0.034868,-0.096449,8.351245,16.761251,1.082048,34.689565
4.164000,0.005764,0.004692,-0.000145,-0.059761,-0.091627,8.330173,17.048986,1.011719,34.666617
4.168000,0.005975,0.004502,-0.000569,-0.058705,-0.042160,8.333068,16.928826,0.799278,34.559872
4.172000,0.006003,0.004124,-0.001115,-0.050603,-0.054813,8.348236,17.259247,0.711743,34.485433
4.176000,0.004376,0.003432,-0.000575,-0.039058,-0.044198,8.338473,17.037563,1.017545,34.522099
4.182000,0.006889,0.005410,0.000749,-0.051656,-0.047594,8.324367,16.978723,1.178480,34.420218
4.188000,0.005759,0.004508,0.000061,-0.054510,-0.037666,8.358905,17.027026,0.632125,34.386895
4.192000,0.003016,0.002257,-0.000099,-0.055416,-0.081418,8.355705,17.182436,1.000940,34.640011
4.196000,0.002913,0.002166,0.000165,-0.039178,-0.065805,8.319711,17.188887,1.341780,34.380556
4.200000,0.002491,0.001940,0.000343,-0.048691,-0.072515,8.312805,16.770498,0.737501,34.389186
4.204000,0.001495,0.001831,-0.000166,-0.052835,-0.066669,8.318632,16.894542,0.958164,34.766192
4.208000,0.001525,0.001499,0.000077,-0.037257,-0.045975,8.345759,17.378691,1.037495,34.937475
4.212000,0.001219,0.001313,-0.000472,-0.061090,-0.056676,8.327773,17.013254,0.626032,34.727918
4.218000,0.001100,0.000874,-0.001282,-0.080462,-0.058309,8.329148,16.727593,0.795336,34.625264
4.220000,0.000119,0.000043,-0.000285,-0.003242,-0.042480,8.340541,17.062102,0.904047,34.297565
4.224000,-0.000240,0.000181,-0.001060,-0.050517,-0.068564,8.305963,17.079736,1.134249,34.528901
4.230000,-0.000347,-0.000213,-0.001161,-0.090594,-0.089465,8.325239,16.921915,0.700583,34.369058
4.234000,-0.000242,0.000089,-0.001460,-0.097982,-0.082847,8.321208,17.157458,1.007206,34.370802
4.238000,-0.000139,0.000058,-0.001199,-0.059865,-0.085212,8.319315,16.655970,1.022003,34.352067
4.244000,0.000090,-0.000585,-0.000940,-0.020735,-0.058506,8.314903,17.214740,0.795508,34.334637
4.246000,0.000180,-0.000422,-0.000210,-0.056855,-0.072415,8.310716,17.111577,1.395455,34.669226
4.252000,0.000385,-0.001639,0.001206,-0.070926,-0.051448,8.317737,17.108561,1.010348,34.187435
4.256000,0.000389,-0.001624,0.001815,-0.077429,-0.072674,8.328581,16.866353,0.457412,34.857941
4.260000,0.000184,-0.002142,0.001992,-0.095056,-0.072611,8.343703,17.377165,1.016751,34.550542
4.264000,0.000846,-0.002745,0.002991,-0.046080,-0.026793,8.351429,16.784402,0.898739,34.869621
4.270000,0.001160,-0.004035,0.005607,-0.025822,-0.015249,8.341489,17.109244,0.831993,34.185311
4.274000,0.000605,-0.003345,0.005331,-0.051633,-0.052047,8.314925,17.350354,0.927011,34.185327
4.278000,0.000565,-0.003924,0.006345,-0.052612,-0.084717,8.334226,16.906957,0.694045,34.498107
4.282000,0.001073,-0.004399,0.005871,-0.067776,-0.085463,8.334538,17.125620,0.842988,34.672874
4.288000,0.001519,-0.007058,0.010986,-0.057164,-0.110421,8.296851,17.101900,1.144069,34.453854
4.292000,0.000999,-0.005553,0.007186,-0.077332,-0.089317,8.334557,17.674225,0.830318,34.348248
4.298000,0.002237,-0.008515,0.011107,-0.049493,-0.049951,8.341380,16.891040,0.897989,34.190400
4.300000,0.000456,-0.003248,0.004286,-0.032178,-0.059142,8.330428,17.146004,0.571340,34.552588
4.306000,0.003182,-0.010046,0.013158,-0.031283,-0.052756,8.333784,16.830386,0.864508,34.637200
4.308000,0.000789,-0.003287,0.004687,-0.027704,-0.118564,8.320343,17.535095,0.730083,34.491532
4.312000,0.001781,-0.006490,0.008312,-0.059278,-0.047953,8.357886,16.952717,0.769873,34.382288
4.316000,0.001195,-0.005916,0.008202,-0.082152,-0.042693,8.302578,17.251777,0.843049,34.952959
4.322000,0.001516,-0.008107,0.010317,-0.075644,-0.075813,8.319783,17.174340,0.742015,34.448394
4.328000,0.001929,-0.007551,0.009201,-0.083796,-0.057913,8.339899,16.940828,1.090387,34.202782
4.332000,0.001093,-0.004076,0.005203,-0.030975,-0.079714,8.325401,16.837574,0.822093,34.649781
4.334000,0.000444,-0.002340,0.002484,-0.052760,-0.036914,8.269049,17.333822,1.201937,34.620106
4.340000,0.001708,-0.005312,0.007879,-0.071257,-0.070774,8.304309,17.081091,1.088774,34.297155
4.344000,0.001018,-0.003188,0.003857,-0.057057,-0.073387,8.312937,16.742155,1.019694,34.323666
4.350000,0.000984,-0.004015,0.005424,-0.050408,-0.058138,8.321435,17.085557,0.958404,34.564927
4.354000,0.000507,-0.001926,0.003758,-0.060776,-0.074122,8.326049,17.279112,1.095490,34.554548
4.358000,0.000426,-0.001344,0.001901,-0.086680,-0.061453,8.317105,17.013500,0.955884,34.402011
4.362000,0.000206,-0.001103,0.001491,-0.026107,-0.058829,8.349792,17.060996,1.439466,34.551886
4.366000,-0.000057,-0.000880,0.001657,-0.071896,-0.078230,8.301145,17.185732,0.799040,34.713238
4.370000,0.000117,-0.000672,0.001453,-0.065701,-0.045483,8.356193,17.245584,1.082719,34.558055
4.376000,-0.000291,-0.000179,0.000449,-0.074622,-0.079977,8.324662,17.298401,1.179821,34.571175
4.380000,-0.000163,0.000195,-0.000305,-0.039666,-0.106219,8.293875,17.077065,1.107178,34.342455
4.384000,-0.000290,-0.000042,-0.000344,-0.041594,-0.110040,8.317189,16.960853,0.924553,34.181145
4.388000,-0.000176,0.000018,-0.000357,-0.048194,-0.062357,8.323341,17.258631,0.749325,34.425783
4.394000,-0.000218,0.000264,-0.000601,-0.058842,-0.053707,8.331950,17.058081,0.942438,34.450420
4.396000,-0.000284,0.000500,-0.000315,-0.064525,-0.069976,8.333925,17.086144,0.923388,34.430527
4.402000,-0.000263,0.000486,-0.001691,-0.016841,-0.054883,8.350689,16.950117,1.143322,34.111244
4.406000,-0.000003,0.000318,-0.001223,-0.063807,-0.081300,8.321452,17.059415,0.844739,34.597365
4.410000,-0.000477,0.000326,-0.001946,-0.054397,-0.091063,8.351725,16.818833,0.838881,34.496978
4.416000,0.000107,0.000850,-0.003905,-0.033715,-0.076889,8.339138,17.305047,0.999464,34.288743
4.420000,-0.000179,0.000781,-0.002781,-0.047055,-0.056209,8.299092,17.004876,1.106349,34.285457
4.424000,0.000197,0.000966,-0.002167,-0.054515,-0.071879,8.338774,17.083515,0.934087,34.442527
4.428000,0.000050,0.000850,-0.003026,-0.064275,-0.121106,8.304387,17.617903,0.856570,34.603551
4.432000,0.000189,0.000897,-0.003828,-0.052860,-0.069393,8.360150,16.950800,1.038065,34.684714
4.436000,-0.000120,0.000936,-0.003488,-0.039905,-0.069033,8.325546,16.985035,0.926097,34.344524
4.440000,-0.000054,0.001064,-0.003280,-0.029422,-0.082570,8.323370,16.877691,1.136614,34.410338
4.446000,0.000314,0.001353,-0.006273,-0.073692,-0.042040,8.334113,16.632981,1.277468,34.362622
4.450000,0.000160,0.001428,-0.004162,-0.066039,-0.072945,8.336476,17.050315,1.253822,34.489932
4.454000,-0.000243,0.001512,-0.004462,-0.056874,-0.081413,8.313006,17.066105,0.701368,34.202373
4.458000,0.000090,0.001947,-0.005104,-0.045044,-0.077845,8.317049,17.065251,1.008260,34.576317
4.462000,0.000204,0.001683,-0.005705,-0.078873,-0.069044,8.322545,17.004348,0.942704,34.163613
4.468000,0.000600,0.002627,-0.008697,-0.058503,-0.066573,8.341282,17.185337,0.970594,34.897971
4.472000,0.000209,0.001906,-0.005839,-0.037931,-0.059420,8.321347,17.097853,0.758333,34.508083
4.476000,0.000236,0.001487,-0.006378,-0.063557,-0.091600,8.314239,17.033048,1.024180,34.523128
4.482000,0.000608,0.002468,-0.006677,-0.051806,-0.086376,8.328137,16.853114,0.625853,34.568756
4.486000,0.000598,0.001506,-0.004789,-0.071716,-0.103986,8.342722,17.362108,0.956705,34.674883
4.490000,0.000092,0.001961,-0.004360,-0.061876,-0.087360,8.304143,17.290498,0.993148,34.361404
4.494000,0.000501,0.001358,-0.003874,-0.043821,-0.042732,8.318072,17.132817,1.174658,34.620489
4.498000,-0.000008,0.001255,-0.003775,-0.056737,-0.048839,8.289694,17.239171,0.853270,34.479495
4.504000,0.000242,0.001063,-0.004639,-0.012761,-0.021147,8.271629,17.071997,0.932863,34.743557
4.508000,0.000046,0.000990,-0.003160,-0.054418,-0.084917,8.320861,16.642539,0.948881,34.503287
4.512000,-0.000075,0.000879,-0.002466,-0.060914,-0.054046,8.323930,16.830393,1.072592,34.379075
4.516000,0.000008,0.000695,-0.002856,-0.070866,-0.073877,8.336580,17.025742,1.299571,34.713273
4.520000,-0.000033,0.000484,-0.002681,-0.076381,-0.103595,8.366382,17.205138,1.016944,34.486997
4.526000,0.000017,0.001270,-0.002061,-0.065504,-0.073160,8.318179,17.479488,1.098289,34.374394
4.530000,-0.000114,0.000483,-0.002218,-0.041512,-0.034641,8.337894,16.824492,1.053103,34.508065
4.534000,-0.000193,0.000355,-0.002198,-0.083191,-0.098297,8.318155,16.818887,1.026606,34.467019
4.538000,-0.000432,0.000571,-0.001466,-0.057998,-0.105117,8.342722,17.196348,1.029193,34.401696
4.542000,-0.000066,0.000266,-0.000771,-0.074500,-0.040279,8.362912,17.216007,0.848223,34.435496
4.546000,-0.000375,0.000361,-0.000433,-0.057612,-0.061543,8.301359,16.991496,1.162034,34.464861
4.550000,-0.000489,-0.000131,0.000279,-0.040022,-0.080450,8.304277,17.358487,1.287668,34.376580
4.556000,-0.000085,0.000017,-0.000259,-0.058430,-0.079792,8.319644,16.531340,1.145316,34.453011
4.560000,-0.000263,0.000095,-0.000341,-0.033447,-0.086238,8.361186,16.927205,0.830663,34.438981
4.564000,-0.000200,0.000133,-0.000164,-0.079318,-0.037829,8.305703,17.343985,0.974888,34.766194
4.568000,-0.000616,0.000515,-0.000238,-0.052634,-0.080302,8.319269,17.189226,0.884448,34.443728
4.572000,-0.001916,0.002704,-0.000319,-0.036543,-0.040231,8.350206,17.201845,1.101855,34.711157
4.578000,-0.004427,0.004996,-0.000644,-0.061031,-0.066900,8.310430,17.042580,0.976995,34.631991
4.582000,-0.003775,0.005050,-0.000241,-0.073030,-0.093849,8.317377,17.018300,0.724097,34.364496
4.586000,-0.004633,0.006132,-0.000146,-0.048207,-0.109433,8.325266,17.045000,1.069719,34.762809
4.590000,-0.005652,0.007580,-0.000951,-0.022921,-0.048442,8.314401,16.829151,0.826355,34.451847
4.594000,-0.006386,0.008447,-0.000344,-0.081940,-0.062002,8.279471,17.242348,0.838839,34.438599
4.600000,-0.010745,0.014876,-0.000425,-0.031885,-0.075934,8.363127,16.815166,1.032275,34.491346
4.604000,-0.008380,0.011095,-0.000158,-0.089463,-0.053388,8.324174,16.959672,0.888015,34.740345
4.608000,-0.009064,0.012398,-0.000210,-0.061731,-0.099821,8.338213,16.890372,0.774637,34.765355
4.614000,-0.014868,0.020767,0.000110,-0.042118,-0.036695,8.346527,17.095706,1.063770,34.602973
4.618000,-0.010793,0.015092,0.000434,-0.068233,-0.093291,8.298606,17.072225,0.866114,34.686845
4.622000,-0.012466,0.016626,0.000111,-0.027108,-0.089151,8.356048,17.300676,1.140378,34.299430
4.626000,-0.011616,0.016198,0.000103,-0.046768,-0.067191,8.320012,17.325918,0.860942,34.383501
4.630000,-0.011503,0.015690,0.000431,-0.044560,-0.074534,8.318755,17.039738,1.088415,34.634197
4.636000,-0.015979,0.022472,0.000100,-0.044601,-0.077654,8.310102,17.020061,1.087480,34.558608
4.640000,-0.009560,0.013143,0.000103,-0.046978,-0.076355,8.336058,16.957077,0.788375,34.611622
4.644000,-0.008577,0.012162,-0.000002,-0.068632,-0.099727,8.361185,17.049893,0.658613,34.696657
4.648000,-0.008001,0.010846,0.000085,-0.028655,-0.057786,8.318379,16.971780,1.229250,34.263913
4.652000,-0.007556,0.010150,0.000471,-0.066236,-0.047979,8.319064,17.028102,0.786607,34.347003
4.652000,-0.000209,0.000094,-0.000266,-0.072935,-0.038100,8.325237,16.969133,1.262572,34.562545
4.658000,-0.009302,0.012860,0.000044,-0.024951,-0.104354,8.336647,16.908622,0.567895,34.204200
4.662000,-0.004958,0.006796,-0.000179,-0.019075,-0.075715,8.320874,16.956862,0.797452,34.493145
4.668000,-0.006536,0.008505,0.000382,-0.084668,-0.054703,8.310668,16.621299,0.900957,34.734908
4.672000,-0.003505,0.004005,-0.000418,-0.063166,-0.101531,8.357591,17.371151,0.553197,34.382799
4.676000,-0.002155,0.003427,0.000034,-0.038080,-0.077342,8.302924,16.893464,0.945957,34.302433
4.680000,-0.001890,0.001985,-0.000123,-0.030462,-0.084140,8.303911,17.381870,0.926027,34.513842
4.684000,-0.000736,0.000842,-0.000165,-0.096989,-0.089805,8.296865,17.364512,0.914471,34.614741
4.688000,0.000083,-0.000295,-0.000422,-0.074002,-0.061759,8.318627,16.913077,0.653579,34.420001
4.692000,-0.000006,-0.000100,-0.000685,-0.054265,-0.091348,8.327511,17.479083,1.039631,34.590468
4.696000,-0.000443,0.000089,-0.000599,-0.022702,-0.083796,8.333949,16.869649,1.093233,34.276007
4.700000,-0.000489,0.000019,-0.000548,-0.092999,-0.046124,8.316574,16.755865,0.809996,34.914112
4.704000,-0.000404,0.000149,0.000033,-0.040248,-0.079267,8.338529,17.423411,0.830689,34.407679
4.710000,-0.003371,-0.000411,0.001838,-0.047884,-0.086010,8.348214,16.741821,0.932085,34.568758
4.714000,-0.003945,0.000162,0.003876,-0.076721,-0.061325,8.318328,17.209967,1.091713,34.499528
4.718000,-0.005003,-0.000009,0.004642,-0.054365,-0.086488,8.327204,17.165009,0.780282,34.641037
4.722000,-0.005841,-0.000216,0.005517,-0.083073,-0.072370,8.327087,16.960231,1.002610,34.610492
4.726000,-0.007407,0.000062,0.008011,-0.072292,-0.078713,8.328898,17.071251,1.065614,34.235044
4.732000,-0.011434,-0.000467,0.013801,-0.073809,-0.080577,8.305919,16.852970,0.858001,34.259537
4.736000,-0.005094,-0.000370,0.006735,-0.014065,-0.056789,8.331701,16.979838,0.836702,34.789894
4.740000,-0.004680,-0.000419,0.003500,-0.037711,-0.118206,8.274621,17.085775,1.106331,34.595672
4.746000,-0.004001,-0.000954,0.003696,-0.069363,-0.106220,8.321423,16.955274,0.932982,34.678023
4.750000,-0.001686,-0.000300,0.000695,-0.057149,-0.059911,8.303242,17.288455,0.881466,34.220067
4.754000,-0.001380,-0.000257,-0.001348,-0.053224,-0.078218,8.333201,16.727647,0.843993,34.087035
4.758000,0.000633,-0.000254,-0.001886,-0.071751,-0.050590,8.324107,17.404473,1.022115,34.414953
4.762000,-0.000699,0.000263,-0.001751,-0.025499,-0.094433,8.341173,16.844831,1.105228,34.322880
4.768000,-0.000775,-0.000426,-0.001586,-0.062459,-0.085123,8.338944,16.862515,0.759613,34.559373
4.772000,-0.000776,0.000223,-0.000729,-0.067291,-0.132210,8.264433,17.178269,1.136904,34.738721
4.776000,0.000079,0.000519,-0.000276,-0.035615,-0.053717,8.364251,17.058763,1.103780,34.408155
4.780000,0.000036,0.001092,-0.000228,-0.061658,-0.104582,8.317733,16.707679,0.777902,34.382162
4.784000,0.000928,0.001371,0.000177,-0.061118,-0.098785,8.359436,16.936547,0.722500,34.448741
4.788000,0.001386,0.002273,-0.000116,-0.016264,-0.068782,8.325975,17.177449,1.237992,34.205323
4.792000,0.001411,0.002632,-0.000454,-0.087617,-0.047189,8.327733,16.809568,0.755303,34.685408
4.798000,0.002452,0.004620,-0.001049,-0.067485,-0.068580,8.314384,17.017556,0.768700,34.676260
4.802000,0.001973,0.003059,-0.000987,-0.058792,-0.107296,8.348115,17.240883,0.904941,34.381122
4.806000,0.002657,0.003407,-0.001995,-0.063970,-0.054747,8.322139,17.108237,0.864131,34.492153
4.810000,0.003027,0.003969,-0.002676,-0.064739,-0.102451,8.341515,16.956910,1.087890,34.586977
4.814000,0.003226,0.004675,-0.003656,-0.079805,-0.087699,8.326216,17.254526,1.167849,34.627557
4.820000,0.005219,0.006667,-0.006297,-0.059918,-0.112110,8.321541,16.956493,1.111988,34.629269
4.824000,0.003763,0.005678,-0.003322,-0.046511,-0.085205,8.321664,17.554855,0.972066,34.674329
4.828000,0.004447,0.005728,-0.005070,-0.059456,-0.079961,8.305416,17.108477,0.894203,34.490415
4.832000,0.004285,0.005622,-0.005209,-0.063646,-0.057226,8.305000,17.108443,1.014658,34.763027
4.836000,0.004898,0.006509,-0.005086,-0.070678,-0.104959,8.345179,17.110359,0.826111,34.478073
4.840000,0.005324,0.006572,-0.005709,-0.065204,-0.094058,8.328057,16.795078,1.236471,34.437201
4.846000,0.006071,0.008724,-0.007410,-0.087900,-0.097545,8.296754,17.235120,0.971059,34.600540
4.852000,0.006254,0.007660,-0.004634,-0.085393,-0.049120,8.311414,17.025058,0.767189,34.355917
4.856000,0.003464,0.005202,-0.003332,-0.054650,-0.093231,8.341513,17.379974,0.941637,34.759632
4.860000,0.003148,0.003990,-0.002553,-0.084871,-0.075465,8.327263,17.313245,0.841148,34.624684
4.864000,0.003298,0.004234,-0.002283,-0.017380,-0.063427,8.314242,17.054529,0.697979,34.507627
4.868000,0.002731,0.003787,-0.002345,-0.050628,-0.032927,8.293337,17.158531,0.825328,34.481016
4.872000,0.002185,0.003326,-0.000994,-0.081537,-0.080738,8.317787,17.011501,1.328650,34.190468
4.878000,0.002841,0.004083,-0.002364,-0.071391,-0.102159,8.354508,17.140993,0.873608,34.420640
4.882000,0.002053,0.002556,-0.001539,-0.093448,-0.079821,8.347286,16.990473,1.051397,34.683807
4.886000,0.001265,0.002169,-0.000610,-0.065439,-0.095485,8.299003,17.079564,1.133566,34.788804
4.890000,0.000634,0.001721,-0.001117,-0.069522,-0.090973,8.330336,17.200783,0.817993,34.639719
4.894000,0.001003,0.001049,-0.000922,-0.093175,-0.059274,8.328528,17.139544,0.766295,34.242160
4.898000,0.000272,0.000596,-0.000823,-0.061103,-0.046595,8.317370,16.653606,0.936993,34.601969
4.904000,-0.000194,0.000143,-0.001359,-0.079569,-0.086699,8.322316,16.815612,1.125140,34.573882
4.908000,-0.000428,-0.000171,-0.000352,-0.066758,-0.092411,8.285404,17.303307,0.994982,34.339103
4.912000,-0.000203,-0.000106,-0.000931,-0.076229,-0.068405,8.328946,17.131640,1.052748,34.439023
4.912000,-0.000248,0.000160,-0.000229,-0.040730,-0.036229,8.341509,16.765521,0.942970,34.351707
4.916000,-0.000197,0.000263,-0.000505,-0.037044,-0.060197,8.360677,17.259278,0.845229,34.876788
4.920000,-0.000163,0.000097,-0.000919,-0.027599,-0.056477,8.340442,16.634104,0.949699,34.819911
4.924000,-0.000396,0.000061,-0.000363,-0.069056,-0.076494,8.319386,16.871824,0.893055,34.466878
4.930000,-0.000344,0.000150,-0.000826,-0.052389,-0.090188,8.322344,16.911618,0.970884,34.294952
4.934000,-0.000432,0.000080,-0.000118,-0.112404,-0.040923,8.321752,17.021984,1.023139,34.503078
4.938000,-0.000120,0.000275,0.000001,-0.055728,-0.046269,8.332253,16.850663,1.122202,34.685207
4.942000,-0.000357,0.000135,-0.000199,-0.035788,-0.100707,8.374539,16.842776,0.674399,34.361121
4.946000,-0.000107,0.000140,-0.000243,-0.042991,-0.071444,8.354934,17.148418,0.976830,34.696729
4.950000,-0.000352,0.000203,0.000188,-0.088479,-0.081485,8.355320,16.980526,0.745545,34.721540
4.958000,-0.000297,0.000103,0.000588,-0.102559,-0.064365,8.336929,16.936753,0.959585,34.245909
4.960000,-0.000381,0.000114,-0.000238,-0.025201,-0.107589,8.358655,16.933609,1.118098,34.406513
4.964000,0.000122,0.000306,0.000190,-0.076194,-0.084671,8.301557,17.200292,0.474575,34.436744
4.968000,-0.000304,0.000009,0.000156,-0.086841,-0.067521,8.303769,17.010390,1.259338,34.319273
4.972000,-0.000452,0.000132,-0.000370,-0.049975,-0.089032,8.301738,17.172685,1.127243,34.405495
4.978000,-0.000297,0.000200,-0.000224,-0.075546,-0.068876,8.320605,16.971452,0.950894,34.259078
4.984000,-0.000489,-0.000270,-0.000593,-0.064197,-0.061632,8.348024,16.955800,1.169461,34.645156
4.986000,-0.000466,0.000274,-0.000554,-0.071141,-0.096733,8.327732,17.013270,0.945391,34.656383
4.992000,-0.000440,0.000135,-0.000090,-0.055395,-0.105138,8.308240,17.192291,0.816375,34.840136
4.994000,-0.000257,-0.000148,-0.000207,-0.079375,-0.079874,8.310852,17.297135,1.054049,34.382036
4.998000,-0.000348,0.000241,-0.000585,-0.050614,-0.108053,8.294344,16.846987,0.860664,34.556141
5.004000,-0.000303,-0.000198,-0.000516,-0.071590,-0.079230,8.296866,16.702886,1.018904,34.792443
5.010000,-0.000517,-0.000146,-0.000118,-0.077081,-0.083786,8.318267,17.154700,0.793305,34.391339
5.014000,-0.000266,-0.000027,-0.000087,-0.061776,-0.089040,8.355997,17.101442,0.893998,34.629724
5.018000,-0.000140,0.000240,0.000104,-0.054996,-0.091972,8.328104,17.159593,1.133877,34.326262
5.022000,-0.000591,-0.000087,-0.000022,-0.062328,-0.051216,8.314092,17.086412,0.853431,34.525347
5.026000,-0.000204,-0.000213,0.000112,-0.049342,-0.074865,8.356274,17.210310,1.110914,34.813739
5.030000,-0.000323,0.000224,0.000305,-0.038785,-0.071741,8.320909,17.125767,0.902184,34.495605
5.036000,-0.000324,-0.000201,0.000290,-0.054587,-0.079356,8.360080,16.709621,1.181434,34.482281
5.040000,-0.000522,-0.000067,-0.000033,-0.063210,-0.083906,8.316930,17.141338,1.054093,34.304359
5.044000,-0.000289,0.000138,-0.000001,-0.089248,-0.064507,8.309663,16.866004,1.221291,34.600223
5.048000,-0.000555,-0.000341,0.000076,-0.042626,-0.101812,8.328764,16.932114,0.898837,34.753504
5.052000,-0.000141,-0.000136,-0.000211,-0.041564,-0.119137,8.366895,17.224019,0.640730,34.859063
5.058000,-0.000653,-0.000566,0.000052,-0.073308,-0.072907,8.337721,17.230257,0.893728,34.314566
5.062000,-0.000251,-0.000081,-0.000407,-0.050079,-0.070233,8.346309,17.247231,1.014882,34.263282
5.066000,-0.000411,-0.000212,0.000024,-0.054238,-0.040257,8.336730,16.999526,1.525315,34.547283
5.070000,-0.000463,-0.000282,0.000022,-0.025071,-0.057603,8.289786,16.901369,0.728693,34.885473
5.074000,-0.000776,-0.000121,-0.000663,-0.012023,-0.087371,8.356354,17.207690,1.194087,34.591858
5.080000,-0.000371,-0.000904,-0.000361,-0.064094,-0.054399,8.312315,17.286121,0.759487,34.575288
5.082000,-0.000373,0.000227,0.000238,-0.052015,-0.080906,8.358037,17.099835,1.189206,34.605390
5.088000,-0.000628,-0.000680,0.000206,-0.055756,-0.056942,8.282561,16.924156,0.935123,34.220929
5.092000,-0.000470,-0.000096,-0.000304,-0.066316,-0.067546,8.330707,16.597561,1.082909,34.471682
5.096000,-0.000582,-0.000451,-0.000031,-0.045188,-0.083214,8.327182,16.994436,1.082769,34.812979
5.102000,-0.000847,-0.000286,0.000165,-0.040733,-0.121804,8.338082,17.147846,1.294028,34.640649
5.106000,-0.000263,-0.000049,0.000409,-0.071273,-0.094253,8.332984,17.103144,0.968840,34.296122
5.110000,-0.000844,-0.000067,0.000315,-0.039778,-0.054923,8.323473,17.229149,0.451274,34.430814
5.114000,-0.000212,0.000028,-0.000129,-0.046862,-0.058373,8.324436,17.049421,0.770247,34.456710
5.120000,-0.000681,-0.000040,0.000337,-0.078485,-0.088700,8.343092,17.399420,1.134997,34.411593
5.124000,-0.000398,-0.000087,-0.000181,-0.065347,-0.096992,8.292224,16.954638,0.676252,34.679519
5.128000,-0.000546,0.000075,-0.000208,-0.047719,-0.086932,8.332860,16.997009,0.543378,34.563105
5.132000,-0.000516,0.000020,-0.000108,-0.039486,-0.102310,8.325288,17.129730,1.107735,34.529540
5.136000,-0.000294,-0.000068,-0.000246,-0.067915,-0.068261,8.351185,16.973406,1.304842,34.544919
5.142000,-0.001033,-0.000024,-0.000200,-0.091272,-0.064455,8.346998,17.183868,0.818121,34.676550
5.146000,-0.000522,-0.000024,-0.000162,-0.068214,-0.078725,8.334635,16.764839,0.833005,34.310838
5.150000,-0.000474,0.000039,-0.000438,-0.057495,-0.064219,8.337516,16.928755,1.162912,34.425636
5.154000,-0.000404,-0.000120,-0.000257,-0.084236,-0.055998,8.349725,17.183736,1.214301,34.538265
5.158000,-0.000297,0.000278,-0.000057,-0.060682,-0.106095,8.323884,17.236819,1.024291,34.566009
5.162000,-0.000491,0.000096,-0.000045,-0.060509,-0.099055,8.318936,17.189937,1.276404,34.420794
5.168000,-0.000695,0.000039,0.000106,-0.092840,-0.063745,8.329544,16.860625,0.725736,34.735134
5.172000,0.000087,0.000027,-0.000196,-0.097598,-0.068892,8.325058,17.263036,0.818421,34.132017
5.176000,-0.000329,0.000217,-0.000264,-0.053997,-0.083878,8.310036,16.915469,1.027419,34.530675
5.180000,-0.000193,0.000273,-0.000132,-0.079952,-0.086835,8.326577,17.080215,0.821039,34.738898
5.184000,-0.000416,-0.000122,0.000307,-0.061412,-0.079834,8.317662,17.111644,1.034786,34.574146
5.190000,-0.000270,0.000355,-0.000101,-0.071486,-0.025424,8.310657,17.146531,1.010134,34.364711
5.194000,-0.000288,0.000120,0.000166,-0.075646,-0.009573,8.334687,17.117405,1.074246,34.766044
5.198000,-0.000179,-0.000019,-0.000302,-0.092212,-0.058998,8.307847,17.125735,0.735810,34.387175
5.202000,-0.000014,0.000392,-0.000033,-0.046060,-0.080236,8.317330,16.961717,0.958290,34.519939
5.206000,-0.000260,0.000075,-0.000114,-0.031934,-0.064563,8.345817,16.829094,0.704129,34.139179
5.212000,-0.000508,0.000227,-0.000292,-0.055609,-0.084953,8.338525,16.444610,0.896366,34.990474
5.216000,-0.000295,0.000293,-0.000293,-0.039996,-0.073276,8.362526,17.391758,0.733292,34.572347
5.220000,-0.000106,0.000449,-0.000089,-0.047236,-0.071713,8.331269,16.763413,0.668979,34.312779
5.224000,-0.000417,0.000090,-0.000462,-0.061611,-0.101223,8.324381,17.002155,0.886608,34.592151
5.228000,-0.000182,0.000306,-0.000156,-0.059918,-0.084380,8.333007,17.173371,0.856873,34.550441
5.234000,-0.000104,0.000170,-0.000307,-0.063945,-0.060384,8.339569,16.834886,0.662777,34.254671
5.238000,-0.000581,0.000248,-0.000414,-0.061003,-0.103566,8.362306,17.170700,0.856664,34.182974
