timestamp,gyr_x,gyr_y,gyr_z,acc_x,acc_y,acc_z,mag_x,mag_y,mag_z
1.600000000000000033e-02,1.309458493798555783e-06,-2.692472136024310892e-06,3.155565423434749348e-06,-6.715222507055841616e-02,-4.593329431029172238e-02,8.393771218252759070e+00,1.702951837961191268e+04,9.608305400616342240e+02,3.446611319417589402e+04
2.000000000000000042e-02,-1.514068528834074600e-04,-6.377899660313747011e-05,-1.207748644186800996e-06,1.131518843064843599e-01,1.512447149133518409e-01,8.435570469972862639e+00,1.696277422128591934e+04,1.273833610662803494e+03,3.479909462858060579e+04
2.400000000000000050e-02,1.496623715385751654e-04,8.893728495960175160e-05,-2.019206344798027267e-04,-3.162471727582835679e-02,2.093422734856938139e-01,8.362030029693780619e+00,1.714245320667125998e+04,9.557174526811198803e+02,3.465136217978776403e+04
2.800000000000000058e-02,1.147559568940549954e-04,-1.423186704960745978e-04,2.169584913963619477e-04,-4.795747129864326441e-02,-1.490511018704039903e-01,8.515178653879305060e+00,1.707108287437984109e+04,9.397830994146719377e+02,3.459721898747311934e+04
3.200000000000000067e-02,7.125308811791208376e-04,1.456592025242022925e-04,-5.640767845483908235e-04,8.131381561754519316e-02,2.030771225483087306e-01,8.281244501630776966e+00,1.697186101269431674e+04,1.025159289115086040e+03,3.457143517384054576e+04
3.799999999999999906e-02,5.835073375516934904e-03,6.081600640133056745e-04,-8.215219149157669239e-04,1.224369005264323990e-01,6.117268389380951452e-03,8.465631555897063620e+00,1.717290414093023719e+04,8.581575498783290641e+02,3.466891190611598722e+04
4.200000000000000261e-02,5.560187399361801730e-03,5.339479509977841046e-04,-1.262228636305854365e-03,-1.384166418806904442e-01,1.237026335259300558e-01,8.463986941851667112e+00,1.688208867903861392e+04,8.679828702332240482e+02,3.443023813517684903e+04
4.599999999999999922e-02,3.457068026744176958e-03,3.724814455476470896e-04,-1.275319204836784489e-03,-3.317620659243545895e-03,5.470629880580997473e-02,8.333649959796739282e+00,1.685010420013005569e+04,1.174498538635953992e+03,3.434546553354780190e+04
5.199999999999999761e-02,1.223039556211061567e-03,-8.559131974887684510e-05,6.861084835774240872e-05,-4.870820233818849709e-02,-3.834859138962898317e-02,8.242344864894265655e+00,1.692199546780509263e+04,1.220846584888865891e+03,3.442221497668466327e+04
5.399999999999999939e-02,-4.699295107108759939e-04,-9.432137967602676365e-05,1.625168066863926799e-05,7.232580686533435221e-02,1.006246263878258496e-01,8.339037330687043337e+00,1.702040190159947088e+04,7.839891847232620421e+02,3.469258264279783180e+04
5.999999999999999778e-02,-8.888115998662413000e-04,7.588468792823303550e-05,5.834724864414673204e-04,2.919510931479524576e-02,-2.177445923823324858e-02,8.425504000413633676e+00,1.721974893150245043e+04,1.121128582811130855e+03,3.463568250381301914e+04
6.400000000000000133e-02,-4.668830298260734368e-05,-2.013213489625568142e-05,2.213228118716869641e-04,-5.274970375307310583e-02,-7.366563027235335792e-02,8.486288337288710792e+00,1.707081571986116251e+04,8.777448385472131349e+02,3.437514059765087586e+04
6.800000000000000488e-02,1.540252136776656662e-04,1.040378792063794333e-05,1.035111766892967170e-04,-5.410420499618122901e-03,1.703443881150483175e-01,8.401824844777426193e+00,1.730512142504562507e+04,1.126102584980474830e+03,3.439857804676028172e+04
7.399999999999999634e-02,-5.964690965262218819e-04,4.685777014436736223e-04,5.092719280794189224e-04,-7.783387861987563217e-02,1.035466035654753203e-01,8.450909957500151393e+00,1.706424828780221287e+04,9.208429838264363525e+02,3.431483361241000239e+04
7.599999999999999811e-02,-1.950439109394673271e-04,3.420384255082435697e-04,4.743737097308969842e-04,6.096829762582204465e-02,1.004881813878877317e-01,8.343114351580720012e+00,1.709075162299583826e+04,8.985577633968565578e+02,3.434869915939161001e+04
8.200000000000000344e-02,-7.971917952653415811e-04,1.179836423538957457e-03,1.176820647843723842e-03,-1.080039075177378211e-02,-1.392276837747802483e-02,8.289539700973865166e+00,1.677143556691406047e+04,6.771606389319097161e+02,3.446072615190401848e+04
8.599999999999999312e-02,-1.473514687636710363e-03,1.192928550320067945e-03,1.316451661637725676e-03,-2.229003174513446289e-02,1.126542258115693362e-01,8.417867269790635376e+00,1.703981828753912851e+04,8.094981753166437102e+02,3.465772004404779727e+04
8.999999999999999667e-02,-1.216082919941259511e-03,1.345632310733684478e-03,1.203004324068422844e-03,-1.132405567228711579e-01,-1.302733509676744783e-01,8.537742593576066241e+00,1.704340248149408944e+04,1.088992429649437327e+03,3.449722520886267012e+04
9.400000000000000022e-02,-2.080035861593452010e-03,1.603072646273013928e-03,1.495345136797575141e-03,-7.838061683298699206e-03,-5.405396430726271129e-02,8.374926118276013298e+00,1.690418547338694407e+04,9.994571029278276910e+02,3.428934083196747815e+04
1.000000000000000056e-01,-3.013825824527770637e-03,2.235764163344749512e-03,2.285103063165211910e-03,-1.243916769379076470e-01,1.197244647584776445e-01,8.364927438040897556e+00,1.715942852912662420e+04,7.963724281728927963e+02,3.470962795953840396e+04
1.039999999999999952e-01,-2.464099048527352686e-03,2.069948193471770996e-03,3.031259256236438441e-03,1.144355601859505800e-01,4.468712845629026556e-03,8.517986947198036063e+00,1.699003945018906234e+04,1.181037479765805529e+03,3.431663537859560165e+04
1.079999999999999988e-01,-2.813186065742961060e-03,2.436434186670318868e-03,2.913467760070415774e-03,2.107716366611215447e-02,7.169042742142713032e-02,8.458324738885680816e+00,1.692434958755214029e+04,1.049149299735380282e+03,3.475855177719228232e+04
1.079999999999999988e-01,1.309458493798555783e-06,-2.692472136023683241e-06,3.155565423434749348e-06,5.186370795369715098e-02,2.925581028764019653e-02,8.378381113069670150e+00,1.737596283218381359e+04,9.837359064590505113e+02,3.488708830101587955e+04
1.120000000000000023e-01,-3.856078995087634884e-03,3.003625920512287707e-03,3.341107879939787979e-03,1.602761119468062156e-01,-7.625705856228376378e-02,8.398297512896723660e+00,1.699871061640529661e+04,1.186669639706004091e+03,3.435179268194051110e+04
1.179999999999999938e-01,-5.479407370603281945e-03,5.237552611754623874e-03,4.811653153896999248e-03,4.932103453405069530e-04,3.351954906953893976e-02,8.361868904783483103e+00,1.713475153102734475e+04,5.228257261778944667e+02,3.431761057242060633e+04
1.199999999999999956e-01,-1.338397503680071893e-03,1.314966964868644278e-03,1.800891706763234953e-03,2.563103208784993023e-02,-1.450145631604279201e-02,8.265084379576670415e+00,1.714352955572673818e+04,7.207901138310262468e+02,3.461601135455776239e+04
1.280000000000000027e-01,-4.964606142929451141e-03,4.308060055946356763e-03,4.366686857129899874e-03,-1.437784309262650538e-04,-9.291373284334833449e-02,8.252283110433666025e+00,1.722766907327398440e+04,8.760576748835993612e+02,3.434742273931476666e+04
1.320000000000000062e-01,-1.879470974513110021e-03,1.637816409640757134e-03,1.626413449534616510e-03,1.049344934332794264e-02,4.041999442147074795e-02,8.442167465978037910e+00,1.696148599443846979e+04,7.862089372698459329e+02,3.451470036891589552e+04
1.340000000000000080e-01,-1.220594169745876619e-03,8.873278528070783567e-04,1.434386235408125236e-03,4.659964690011104971e-02,-1.628907602594709958e-01,8.283638368662151308e+00,1.707238073299823373e+04,9.130446070327913048e+02,3.485680622754402430e+04
1.400000000000000133e-01,-2.259239451262590789e-03,2.536557287731146682e-03,2.721696695318999871e-03,1.646187733484742455e-01,-8.861301864179964294e-02,8.449233717132834443e+00,1.691379059563829651e+04,1.239536702014890352e+03,3.433386442012832413e+04
1.439999999999999891e-01,-9.586954474670790916e-04,1.205903528144119290e-03,5.486695678463979426e-04,-5.884547018921902628e-02,5.989520237389656457e-03,8.344755390257255101e+00,1.706622893245534942e+04,1.199235315723937447e+03,3.475247228061640635e+04
1.479999999999999927e-01,-1.150728122120975609e-03,1.079337893274380554e-03,8.628230742891616033e-04,4.596462591213029691e-02,1.074616238642201772e-02,8.360288575783366483e+00,1.697110610087404348e+04,1.078034846634822770e+03,3.461574423488543107e+04
1.539999999999999980e-01,-9.151137813465216138e-04,1.153510045220646407e-03,8.715608681039162904e-04,-8.942486131029124541e-02,2.171668495064671758e-02,8.296092308765691925e+00,1.694789475643685364e+04,1.089576782219544612e+03,3.489347638334654766e+04
1.580000000000000016e-01,-3.564663595236141117e-04,1.500343308300571769e-04,-1.102767076119764322e-04,3.466237226880213712e-02,2.197876768796647173e-01,8.511322066672947884e+00,1.714275213022062962e+04,1.079981559487298910e+03,3.466418561898847111e+04
1.620000000000000051e-01,-7.732403706910952136e-05,-1.380149727416825291e-04,6.401881025363794289e-04,5.909372681999847110e-02,-7.974723241862052489e-03,8.235120452704933314e+00,1.677046881956178913e+04,1.059482390286025748e+03,3.433882985050036223e+04
1.660000000000000087e-01,9.737303450090994581e-05,1.480562039120967890e-05,-4.768083425172538778e-04,-1.122780160497003354e-01,1.069458674735192794e-01,8.331612445046456372e+00,1.693826833487538534e+04,1.387341482731988663e+03,3.448590836223914084e+04
1.700000000000000122e-01,-5.982572567399472831e-05,-5.944660221305483400e-05,3.347628276944148015e-04,-5.995409040439316634e-02,-1.469552534914442439e-02,8.308745690789100635e+00,1.690932664666502751e+04,1.192870842757957007e+03,3.435213487263274874e+04
1.739999999999999880e-01,2.107617352491140982e-04,-1.684906368739406642e-04,-8.412631148670544792e-05,-1.042490290376122813e-01,-5.016049561090417906e-03,8.323065583967499848e+00,1.696574454602867263e+04,1.211489308121574595e+03,3.454291867543800618e+04
1.799999999999999933e-01,3.154143485009357640e-04,-5.306890636618023793e-04,3.783528153735887822e-04,-6.343830781928423701e-02,-6.637063688474013901e-02,8.441803133875326992e+00,1.675118744006447378e+04,1.075686217438507356e+03,3.445826898163024453e+04
1.839999999999999969e-01,1.253775228766245255e-03,-3.375416871556207420e-03,-1.397770628086141042e-03,-2.058850991718541579e-02,-1.572100931601406668e-02,8.448066810944030891e+00,1.734910055978064338e+04,8.543886250904208737e+02,3.473691257812280674e+04
1.880000000000000004e-01,1.690268071912606708e-03,-4.701749803627600088e-03,-2.911933881699225145e-03,-1.286528093757936982e-02,-2.403549969361735289e-02,8.437443820381160364e+00,1.739517103554758796e+04,8.076717449052873690e+02,3.449686092689572979e+04
1.920000000000000040e-01,2.506198920910386423e-03,-6.612867827616996340e-03,-3.474905589003746305e-03,5.539999595103078933e-02,-1.293493283748232449e-02,8.404705118979196143e+00,1.712886956240224754e+04,8.070216503683793690e+02,3.458568890373972681e+04
1.960000000000000075e-01,2.768005349980802617e-03,-8.083243040599987286e-03,-5.058816287692978649e-03,-6.609762061069891781e-02,-7.277047762532970476e-02,8.462528267685199168e+00,1.701177470164593615e+04,9.256963605012623475e+02,3.454248551477057481e+04
2.000000000000000111e-01,3.287103892817704737e-03,-1.065757802599042597e-02,-6.734368127323403681e-03,3.728049741262895456e-02,3.785517051702061431e-02,8.421521739251129901e+00,1.707027632397360139e+04,1.005388324774269790e+03,3.441696258023803239e+04
2.059999999999999887e-01,7.191766925080383434e-03,-1.803594975023866884e-02,-1.154711847904812613e-02,4.400450716654629932e-03,5.834527345408543203e-02,8.476465596422329440e+00,1.695204754863195558e+04,9.527558485031598821e+02,3.452243805688429711e+04
2.099999999999999922e-01,5.306299255855147397e-03,-1.454123226419050570e-02,-8.906836502203844055e-03,7.753304864295300358e-02,-8.423983465546359614e-03,8.514414478529191754e+00,1.697642880429563593e+04,1.039343566483246832e+03,3.418045756758515199e+04
2.139999999999999958e-01,6.387606638069536109e-03,-1.570647761583391505e-02,-1.060817208295244778e-02,2.072219857822746314e-02,5.336040860103817562e-02,8.421625196034476346e+00,1.692238017223819043e+04,9.246228253322253750e+02,3.436403130046962906e+04
2.200000000000000011e-01,1.042999608811052102e-02,-2.699071276521604335e-02,-1.696006536702349479e-02,2.318622741475986557e-02,-6.118366484137041650e-02,8.456834396448737579e+00,1.738059888115941067e+04,9.847788988996433091e+02,3.456111971386034566e+04
2.220000000000000029e-01,3.555479390769752338e-03,-9.681037207586276269e-03,-6.244357587958606140e-03,2.417138546553652678e-01,-3.075127902176064826e-02,8.403897383756845585e+00,1.697497980193494004e+04,9.790231885069040345e+02,3.429229034482027782e+04
2.280000000000000082e-01,1.238486038976331118e-02,-3.218017126072653805e-02,-2.102885306374996030e-02,-3.362335382993517086e-02,-3.984356391615386656e-02,8.527636696514086623e+00,1.703971575535882948e+04,8.047068891526758989e+02,3.447070877120811929e+04
2.340000000000000135e-01,1.270871010999624282e-02,-3.302791401022758810e-02,-2.227937286933118557e-02,-5.155774223030155923e-02,-3.824568354644403839e-02,8.264617542837001452e+00,1.658376754587573305e+04,7.711909512590733584e+02,3.480384700970561971e+04
2.379999999999999893e-01,8.632300763026352908e-03,-2.185254851938309845e-02,-1.322198244409071230e-02,-5.793193043038876583e-02,-1.416128240618087786e-01,8.450992199081595047e+00,1.723983111791967167e+04,1.244676293014228804e+03,3.478764030419995834e+04
2.419999999999999929e-01,8.613609740501824291e-03,-2.184430547531312009e-02,-1.333467578796820874e-02,2.415421812149480540e-01,-2.864632245914699657e-02,8.257959787058043233e+00,1.721247106590957628e+04,9.054423488684020640e+02,3.431897527938371786e+04
2.439999999999999947e-01,4.071310505464761920e-03,-1.091279110322910736e-02,-6.783295013109151735e-03,8.237322928169360514e-02,-5.876266629199644598e-02,8.507051044207232238e+00,1.730521349868590551e+04,1.006145321257388900e+03,3.499846632896543451e+04
2.500000000000000000e-01,1.204762907608624041e-02,-3.231492928931307962e-02,-2.090504067549574588e-02,-1.580756694519209332e-02,-5.037018078657273801e-02,8.382986894376426079e+00,1.701835524343075303e+04,1.376851411442251901e+03,3.448556591145968559e+04
2.520000000000000018e-01,3.747613419490871626e-03,-1.041132114459326560e-02,-6.411878850656589635e-03,7.186423028938312974e-02,-1.628329206190044440e-02,8.356216657599631503e+00,1.734746986460999688e+04,1.324600112135779909e+03,3.431798565539004630e+04
2.600000000000000089e-01,1.381295314654827980e-02,-3.536278370974881013e-02,-2.326669262957593159e-02,-7.283603094580252957e-03,-1.035294572573224464e-01,8.431272322199189873e+00,1.700145814340871948e+04,8.022631671051577769e+02,3.427563812897795287e+04
2.640000000000000124e-01,5.488704413971182486e-03,-1.535212229861112818e-02,-9.014027342697640208e-03,-1.401185126088652644e-01,-3.383223028972826008e-02,8.461701877517976200e+00,1.722547089489785139e+04,9.647491483119288205e+02,3.452158654647773801e+04
2.660000000000000142e-01,2.788304353911499195e-03,-6.837589951462215258e-03,-4.619105944055781551e-03,3.560897050716275297e-02,5.313335250633347689e-02,8.392466387772790526e+00,1.720504639449125534e+04,6.455270453092443859e+02,3.475889854940231453e+04
2.720000000000000195e-01,7.164392321596366187e-03,-1.894899749351074136e-02,-1.167787867402642066e-02,1.090299703456305974e-01,8.145536436744529873e-02,8.435394617181296795e+00,1.703321447327350688e+04,1.107675576490241156e+03,3.462926765985336533e+04
2.760000000000000231e-01,4.530786806251080844e-03,-9.967120450512751556e-03,-6.410689042122477178e-03,8.902475873079519764e-02,6.697224198771351000e-02,8.361021611350874849e+00,1.736587812626231607e+04,9.859801690170984330e+02,3.409990537594417401e+04
2.800000000000000266e-01,3.305785035959883395e-03,-9.094081845398199748e-03,-5.416112086405241305e-03,-1.014243991113900484e-01,3.936514273921333518e-02,8.443787234612958770e+00,1.711405044666523099e+04,1.045669905012120580e+03,3.430912399174326856e+04
2.859999999999999765e-01,3.710811634726094224e-03,-9.552506266004094290e-03,-5.821547528094817708e-03,1.033332043866846683e-01,-7.444337933471147084e-02,8.321805009284402033e+00,1.713275238852666735e+04,9.383715517669057817e+02,3.424902861885238963e+04
2.899999999999999800e-01,1.881842464770300477e-03,-4.921733467645479816e-03,-3.131599236596538469e-03,5.054338194821342278e-02,-1.724959222244719891e-03,8.239561193825922558e+00,1.723435921869693630e+04,8.997968547186593469e+02,3.442906457425274857e+04
2.939999999999999836e-01,1.254653037833926418e-03,-2.316430017507570011e-03,-2.308226461889248231e-03,4.350027851384050126e-02,-1.512714754600272826e-01,8.318544072556621316e+00,1.701620701541095332e+04,1.246720583910200276e+03,3.449930278926018946e+04
2.979999999999999871e-01,7.072937724157448694e-04,-1.010933177796644478e-03,-6.071921947330482594e-04,1.255461274755769185e-01,1.575697238616745044e-01,8.295836008989665444e+00,1.712069088325758639e+04,9.239786578716513077e+02,3.459627802214030089e+04
2.999999999999999889e-01,1.581201223845146427e-04,-3.693080863860701132e-04,-1.842785609886201271e-04,-1.561698394765059957e-02,7.902244554717942696e-03,8.547512323243191545e+00,1.736543131607834948e+04,1.133697538412871381e+03,3.463940294147059467e+04
3.059999999999999942e-01,-4.953279444758966303e-04,7.786224747049050234e-04,5.481690642698869818e-04,-2.937194818438567528e-02,-3.574229069019292659e-02,8.527987053749916058e+00,1.722217971809599840e+04,7.429046383283535988e+02,3.433837005535962089e+04
3.119999999999999996e-01,3.280028477837855917e-04,-9.452162289391990036e-05,-3.851327000738500716e-04,-1.945260482059767843e-02,6.496715189310135752e-02,8.273876548289207378e+00,1.706592058443791393e+04,8.690336009998239888e+02,3.430206620419922547e+04
3.160000000000000031e-01,1.758798726416403865e-04,-2.208451323426990865e-04,2.944770256574118095e-05,-2.350739773201349428e-03,-1.350488976755555293e-01,8.309291401244717434e+00,1.674478922151689403e+04,7.494930376887700731e+02,3.445770319664370618e+04
3.200000000000000067e-01,3.610358354228824449e-05,2.590664457894292587e-04,-7.551894405639201125e-05,8.249607269649265884e-02,1.331289054068421004e-04,8.371127769200018776e+00,1.709202837638244091e+04,8.561228780750593614e+02,3.452234107923034026e+04
3.240000000000000102e-01,-1.433909572574622260e-05,8.085990960437869520e-05,1.264111806865229632e-03,-5.086181561446222882e-02,-1.420699001042556760e-02,8.423213359050608418e+00,1.702182373523879141e+04,1.218890109095497792e+03,3.447600792454527254e+04
3.280000000000000138e-01,5.928474424427432778e-06,2.433159258408515457e-04,3.231885151367072835e-03,9.455416075547287691e-02,-2.161345673512955201e-01,8.328075311131451386e+00,1.723951391526187217e+04,1.047731806790730388e+03,3.423706951424013096e+04
3.320000000000000173e-01,-9.379500146392143775e-05,2.609976113476834771e-04,3.676934668876862076e-03,2.536149492041290393e-02,-3.982266804086377274e-03,8.431801372500524749e+00,1.708788940122605709e+04,7.702944068981332748e+02,3.448635017361164500e+04
3.380000000000000226e-01,-5.623287493705864852e-04,7.435023325634810372e-04,8.633418049368851363e-03,3.444363893635809387e-02,-2.130176057907203976e-02,8.353681347143696811e+00,1.696174578357247810e+04,1.081232683452182755e+03,3.424864489355198748e+04
3.420000000000000262e-01,-1.413122803415301464e-04,7.339725353797730114e-04,7.088809021480972986e-03,-8.665903936295727555e-03,1.007663616082741520e-01,8.336452621791080375e+00,1.710804427058029614e+04,1.117416331339672070e+03,3.468211868725328532e+04
3.459999999999999742e-01,-9.289479411811123026e-05,6.468608381089810573e-04,7.398649637500867397e-03,6.654992657054381588e-03,1.968916047791462176e-02,8.528963479586616714e+00,1.695794557069648363e+04,1.010048590170109719e+03,3.454280079457740794e+04
3.499999999999999778e-01,-3.523601632979395906e-04,9.924048004814397129e-04,9.060898581689602257e-03,-1.332350546409145041e-02,8.479985433963636854e-02,8.501387103141682999e+00,1.740308462055424388e+04,7.206020886600335871e+02,3.433188510363685782e+04
3.539999999999999813e-01,-3.892617548862674945e-04,8.449014861857337150e-04,1.075830642998054296e-02,6.513858678575929796e-03,-1.342978855687749357e-02,8.370292594925439644e+00,1.764521992512157885e+04,9.525622262984110193e+02,3.414318169514679175e+04
3.599999999999999867e-01,-1.901433871400868734e-04,1.641599701203389069e-03,1.585426016148077516e-02,-9.670925921984719828e-03,7.599758892314001368e-02,8.417326461664515591e+00,1.699259388830065654e+04,4.706733550640365138e+02,3.455397984073008411e+04
3.639999999999999902e-01,-4.362149968335262405e-04,1.220537027537104378e-03,1.158278595801798261e-02,3.153152183301977801e-02,-9.025171717103448732e-02,8.316677261887949868e+00,1.726068626552863134e+04,8.275875744862296415e+02,3.441697644999421755e+04
3.679999999999999938e-01,-1.865336169270354289e-04,1.116172161502283896e-03,1.231587799620413246e-02,1.917399552630660586e-01,-1.069674842610894051e-02,8.332861658422356044e+00,1.728251663419394754e+04,6.651831687038454675e+02,3.425314938184949278e+04
3.719999999999999973e-01,-7.058792121183010823e-04,1.386657714133423310e-03,1.228083752057214893e-02,1.318709931494045362e-01,2.787871189587698764e-02,8.446479668721909917e+00,1.706050107501984166e+04,8.564739218981894737e+02,3.445122079026036954e+04
3.760000000000000009e-01,-3.385814047059023247e-04,1.461113614444579413e-03,1.289166804094881921e-02,4.614466240254223861e-05,-2.256136936916131736e-02,8.383684909450177969e+00,1.686084934108543530e+04,1.041757102745707925e+03,3.447918407428183855e+04
3.820000000000000062e-01,-1.145098610135152246e-03,2.234021431068845646e-03,2.294001268403637536e-02,-1.045569656221102123e-01,-3.223069495359747426e-03,8.422787454775809479e+00,1.720987116177517601e+04,1.037349253103004912e+03,3.454790553201342846e+04
3.860000000000000098e-01,-4.823987907444237549e-04,1.807437540020284195e-03,1.633852889629281227e-02,1.669046779248161139e-01,1.136616188226114224e-02,8.201904189617959418e+00,1.682528050233219619e+04,1.092451783966908806e+03,3.444447822592074954e+04
3.900000000000000133e-01,-9.440921151075087024e-04,1.785909455211120121e-03,1.702358612789183975e-02,3.551326448174709632e-03,2.341732746055562586e-01,8.470683856362395403e+00,1.707162035303475204e+04,1.198199783070999274e+03,3.436975170266906935e+04
3.940000000000000169e-01,-4.584096528138632506e-04,1.838750727829149270e-03,1.811003223490693231e-02,-5.671533004314210924e-02,5.373595288694318906e-02,8.335613257034001577e+00,1.736381884626494866e+04,1.273222299074082912e+03,3.465348304447890405e+04
3.980000000000000204e-01,-4.263316856714060546e-04,2.188387844219128603e-03,1.935341179237005244e-02,-1.023825691218326894e-01,-2.517587137785803897e-02,8.405613505959799170e+00,1.691440222645040922e+04,5.724203536950483340e+02,3.471644391712453944e+04
4.040000000000000258e-01,-1.360085012928281302e-03,3.150246310957580207e-03,3.252581779743154988e-02,-1.460184847510815620e-01,-9.247289115795456760e-02,8.398795312384027767e+00,1.712445646377788216e+04,8.476153377401213902e+02,3.473491299675370101e+04
4.079999999999999738e-01,-2.614777995735060147e-04,2.473249504159845229e-03,2.223744561925816710e-02,-2.315700203659255829e-02,3.717894484499341401e-02,8.295920387137366347e+00,1.693677811482645848e+04,9.079024795372872632e+02,3.461012542276989552e+04
4.119999999999999774e-01,-9.683176054463434566e-04,2.176567310348319004e-03,2.240776326325479711e-02,7.101908712247839706e-02,-9.542194575067659834e-02,8.535883337094405832e+00,1.688801300774576885e+04,9.668537367756922549e+02,3.471897295996582397e+04
4.159999999999999809e-01,-5.605015361935766598e-04,2.740177128735657441e-03,2.412228809817183045e-02,-1.331317595120274366e-01,-8.778255664301427841e-02,8.432978227034329421e+00,1.714291800726565998e+04,1.226516274686837278e+03,3.472772843893730169e+04
4.199999999999999845e-01,-8.546878651888765131e-04,2.745477717587033271e-03,2.626468413427138215e-02,1.506258587216421363e-01,3.039666067665724655e-02,8.445196275178048495e+00,1.710346517363409657e+04,5.341595382650683632e+02,3.429653417630707554e+04
4.239999999999999880e-01,-7.593962920878377133e-04,2.359676987737886929e-03,2.254296210525463459e-02,1.225835472134583284e-02,-8.228326359789367439e-02,8.356766439024013948e+00,1.724878318569349358e+04,6.840194329097464561e+02,3.444677807824694901e+04
4.279999999999999916e-01,-9.233594294552790712e-04,2.546387166788446118e-03,2.074519608444080204e-02,-9.107508763897011195e-02,-1.035041750169749947e-01,8.431666682940345936e+00,1.716667042239180955e+04,1.264201323845079060e+03,3.439911918080094620e+04
4.339999999999999969e-01,-1.598215587493799538e-03,4.141484325383735544e-03,3.590265168167545290e-02,-8.376210992443339221e-02,3.066174979005798981e-02,8.288602028871576266e+00,1.697707596326115890e+04,9.683286654965380649e+02,3.457777750005837879e+04
4.380000000000000004e-01,-9.785482738938627596e-04,2.314086262207499991e-03,1.892146095070807929e-02,3.537417507395660549e-02,-3.724715019113630093e-02,8.516055049218305584e+00,1.707107586483698105e+04,1.179129841664875585e+03,3.435639671696647565e+04
4.420000000000000040e-01,-1.121885658103082429e-03,2.247277088940906071e-03,1.607661632611252431e-02,3.759448658091019135e-02,1.075339501689879240e-01,8.334469765019319354e+00,1.712368904228733300e+04,1.061512070987580501e+03,3.443339989117516961e+04
4.460000000000000075e-01,-9.005928687128402421e-04,2.248389540984464200e-03,1.872516066777872926e-02,1.504832551943123368e-02,-7.866844617690450792e-02,8.363194295192302619e+00,1.726206282734798879e+04,1.003037542441961364e+03,3.466261749139184394e+04
4.500000000000000111e-01,-7.493625498224239711e-04,2.003501913077177649e-03,1.764317322472771024e-02,-1.174503019918809663e-02,-5.726042703849747173e-02,8.295851542160214365e+00,1.713748724503831545e+04,1.045541767807006636e+03,3.438897521344428242e+04
4.560000000000000164e-01,-1.498836402990051620e-03,2.886807073241634460e-03,2.220682954999763162e-02,-1.085367001853069918e-01,-1.928451639657668693e-01,8.309217534158875651e+00,1.697827339667218257e+04,1.207170277931733153e+03,3.463342312234867859e+04
4.600000000000000200e-01,-7.926434904154753668e-04,1.508963831017316693e-03,1.459344510183730251e-02,6.281554419422585855e-02,-1.306227622284606427e-01,8.283034826629382508e+00,1.690257054052973035e+04,1.005040005315732742e+03,3.405383072700176854e+04
4.640000000000000235e-01,-5.537573870669890196e-04,1.386388581030633662e-03,1.375138120434266434e-02,1.604710584577193344e-01,-4.985361241362638862e-02,8.424890206438274021e+00,1.698893078429771776e+04,1.154311255744989467e+03,3.448709653344485560e+04
4.699999999999999734e-01,-9.824730119532912049e-04,2.379575693172029851e-03,2.021303959949841828e-02,6.393419311268187799e-02,5.920357802703738598e-02,8.270086106997270647e+00,1.712195642361455975e+04,3.865984086004870051e+02,3.443580848910548957e+04
4.739999999999999769e-01,-3.534255857402786934e-04,1.325157850956429654e-03,1.360306268609990342e-02,-9.455843062346909120e-03,-1.323450863131652444e-01,8.603369339245537262e+00,1.716427506015443214e+04,1.056316715963363549e+03,3.469684808711026562e+04
4.779999999999999805e-01,-2.058039828622711793e-04,1.298725756497699259e-03,1.304457048930095751e-02,-1.240317317239890554e-01,-8.445182322510219608e-02,8.310540199562584718e+00,1.705847883063390327e+04,9.338528772230181403e+02,3.425493827729071199e+04
4.819999999999999840e-01,-7.754877045963139625e-04,1.132039789783395416e-03,1.101569926116368822e-02,-1.158216789860274654e-01,1.171085639238018256e-01,8.601364865976798058e+00,1.705946971288038549e+04,7.218782181774221272e+02,3.415566601639548753e+04
4.859999999999999876e-01,-2.125159483713826535e-04,9.313575107711591534e-04,1.114232189864565806e-02,-3.011741855091219083e-02,-1.073773135938827089e-01,8.210073719901425093e+00,1.688973677016701913e+04,1.254740437564190188e+03,3.445957823405948875e+04
4.919999999999999929e-01,-9.607068782333234131e-05,1.512763956750380829e-03,1.375570865346479807e-02,-1.071512020020361569e-02,-2.306100159489166135e-02,8.343233917144239342e+00,1.714098233457096649e+04,8.642401843916784401e+02,3.416687651023715443e+04
4.959999999999999964e-01,-1.198816639985683002e-04,7.207376822680877778e-04,8.345522535872576531e-03,2.835174057602410369e-02,3.668915309529443419e-02,8.425061702074732040e+00,1.727888785598550749e+04,5.441261060254859103e+02,3.440497880449741206e+04
5.000000000000000000e-01,-2.820296754486558213e-04,8.688400646416260999e-04,7.760776533052856675e-03,-1.681634255539787501e-02,-8.902054772882746214e-02,8.453845651455413446e+00,1.708794687789369709e+04,1.006402145325827973e+03,3.437196823428700009e+04
5.040000000000000036e-01,2.987468483949127083e-05,5.626010343589523451e-04,5.832316718031837696e-03,1.076361093096310159e-02,7.809737336560973464e-02,8.464279474342719212e+00,1.674435334889103251e+04,8.072867281571303693e+02,3.436771322745703219e+04
5.080000000000000071e-01,-2.845472567066396267e-05,5.576640476757098756e-04,4.453509493524208940e-03,-1.097047132146242721e-01,-1.169525535654861448e-01,8.334479634890998412e+00,1.694942571134243190e+04,1.148167011470405896e+03,3.427820552286255406e+04
5.140000000000000124e-01,8.530859484213383268e-05,5.795990436615914643e-04,4.737116170186034952e-03,-7.903003237835412587e-02,6.692070378993214552e-02,8.427432241608308061e+00,1.715626930876561892e+04,9.914798090546964886e+02,3.469704824979361001e+04
5.160000000000000142e-01,-2.550205017296681281e-04,-1.375564571131277544e-04,9.631421594541655310e-04,1.019877679058712461e-01,3.678320524497959154e-02,8.415451736879257183e+00,1.707266589893104901e+04,1.113285775734096433e+03,3.447884525073981058e+04
5.220000000000000195e-01,1.193655948716651445e-04,1.048630913762486582e-05,2.169528008141411747e-04,1.104310987764487578e-01,4.293785470627962952e-02,8.403648553025577783e+00,1.718199090098966190e+04,6.713650924556532118e+02,3.400379255519307480e+04
5.280000000000000249e-01,-5.275109759121358351e-05,-3.349178229741479277e-04,-1.471508750317931328e-03,1.340171967699251010e-01,1.316151210702026439e-02,8.372371137180655509e+00,1.717108053574088262e+04,1.044041698347373313e+03,3.460359827195806429e+04
5.300000000000000266e-01,9.679913767862740248e-05,1.894279539016893621e-05,-4.331854867853722046e-04,-6.067089036308609407e-02,6.253154665320009853e-02,8.501816175316712076e+00,1.699722526835484314e+04,1.247998155890978978e+03,3.442341088502764615e+04
5.340000000000000302e-01,-3.275412227189948837e-06,-1.249453367430723141e-04,-1.887797084991901190e-04,5.444775380360913561e-03,1.133296876564470201e-01,8.232488863315483130e+00,1.717943937405009274e+04,1.075584275159513936e+03,3.484308421262646152e+04
5.380000000000000338e-01,-4.633467117506795716e-05,1.806940498459051151e-04,3.085117749449271048e-04,5.029978056926147009e-03,1.230162552452365027e-04,8.336876947816932670e+00,1.703726698245145235e+04,8.351791883943297989e+02,3.422340687935119058e+04
5.440000000000000391e-01,-1.293838713904871967e-04,-2.879810665699431338e-05,1.820625527688896409e-04,2.098829153557901783e-01,-2.073050705599850142e-03,8.363688500794589586e+00,1.739738558007208485e+04,1.042156990455840514e+03,3.459927948057371395e+04
5.480000000000000426e-01,-1.863637303242427498e-04,4.641649679839506817e-04,-4.067124594688325200e-05,1.185239475002084625e-02,-1.647155500525474825e-01,8.334116269455321913e+00,1.769866964922834813e+04,1.023570424499872729e+03,3.426116112318493106e+04
5.520000000000000462e-01,-4.484040533904703335e-04,4.728050818952187124e-04,-2.501136126976278174e-04,9.222799804143251567e-02,-4.935406234929012870e-02,8.328321110596483834e+00,1.706047335732853026e+04,7.731313147322450732e+02,3.443581144496595516e+04
5.560000000000000497e-01,-2.208288636681696225e-04,2.505204951261297730e-04,3.433902294276869761e-04,1.196207576738327338e-01,1.160105933954192758e-01,8.441346055162750162e+00,1.702062440514851914e+04,8.477737853777076680e+02,3.424369110243913019e+04
5.600000000000000533e-01,-8.321904270267693185e-04,5.295953396307748933e-04,-8.869238922882955703e-05,-2.859070747472326063e-02,-1.668173190468227873e-02,8.330397561968698739e+00,1.740487826548809244e+04,1.018316503199009958e+03,3.446869380870329769e+04
5.639999999999999458e-01,-5.363243636211514421e-04,3.329475525327737617e-04,-8.216487153309924834e-04,-7.392193974181524019e-02,-8.429855990399122423e-02,8.346025767425757635e+00,1.724400339365391119e+04,1.051474429735379999e+03,3.456526114728207176e+04
5.699999999999999512e-01,-1.156662695001304695e-03,8.824647003583741727e-04,-1.476367593628266032e-03,-7.730649037053832773e-02,-1.279469270259253610e-01,8.416354924614005029e+00,1.722988243381501525e+04,9.864716787943123109e+02,3.464132721233036136e+04
5.759999999999999565e-01,-1.528977728432276461e-03,8.383369347305164769e-04,-2.737344926989477862e-03,2.926161185522075173e-02,1.461522082165813141e-01,8.341803055030462488e+00,1.724287709661068948e+04,9.919927026825555458e+02,3.446982533759209036e+04
5.779999999999999583e-01,-8.863116462170252900e-04,3.631808164195531128e-04,-1.637597022938005195e-03,3.441445098119031570e-02,2.955237217616795559e-02,8.376612592351039055e+00,1.739255395933632826e+04,8.685754356719073712e+02,3.458769116959626263e+04
5.819999999999999618e-01,-8.915581369182530797e-04,7.468543698185660992e-04,-2.418779792039878803e-03,7.203156009060640574e-02,6.836431927462011116e-02,8.425425521523305150e+00,1.717736440083468551e+04,8.432559826902839859e+02,3.435674832187734137e+04
5.879999999999999671e-01,-1.968605695883850985e-03,1.090321163390820837e-03,-5.669581434636417928e-03,-1.198234439979137603e-02,-2.683003607100351712e-02,8.283066720945239325e+00,1.702929291212962926e+04,8.659761732559318261e+02,3.423155745415326237e+04
5.919999999999999707e-01,-1.133164696269765457e-03,1.047401276298540141e-03,-3.876233658837007282e-03,-5.822966737247720070e-02,-4.907864157588281984e-02,8.303539442385643454e+00,1.697179607403413320e+04,1.012188179270970750e+03,3.475639015113196365e+04
5.959999999999999742e-01,-1.573467522263146410e-03,9.210111224791595269e-04,-3.540205184994930226e-03,4.636424915857610685e-02,1.035964250629641953e-01,8.321671423854049010e+00,1.720395285840267024e+04,4.601631825514388083e+02,3.463613084241944307e+04
6.019999999999999796e-01,-1.943292476628712302e-03,1.949691672497178311e-03,-6.516359709454909964e-03,3.315728265323376889e-02,-8.380468203376163772e-02,8.372322852872990495e+00,1.698934168775477883e+04,1.048386034917584084e+03,3.451001026824791188e+04
6.059999999999999831e-01,-1.627169958995281548e-03,1.370035887187791030e-03,-4.788262931922421771e-03,-4.866555186358419161e-02,5.353159280723199936e-02,8.340925896899960890e+00,1.705953555173197310e+04,9.415147157448891448e+02,3.450851363131580729e+04
6.099999999999999867e-01,-1.866721125181883961e-03,8.291476976444385515e-04,-4.417180883827500487e-03,9.423847956462400033e-02,-1.771327603235445247e-02,8.343376842458271270e+00,1.735550408997311752e+04,9.574661977567793656e+02,3.472201148948608170e+04
6.139999999999999902e-01,-2.530317756145226103e-03,1.217401043897109805e-03,-4.770735704498705806e-03,-9.601292339112385554e-02,2.410128400536604154e-02,8.473110085682533210e+00,1.727739594515601493e+04,1.089727861253245919e+03,3.416882234825202613e+04
6.199999999999999956e-01,-3.567987155942854011e-03,1.356004592010011823e-03,-8.038893935670315613e-03,3.214646095116924923e-02,1.907333750609772061e-01,8.518002940966512782e+00,1.731122150918078478e+04,8.730790744028556674e+02,3.465097256003318762e+04
6.219999999999999973e-01,-1.196636729383172837e-03,4.852960799439451508e-04,-2.187388204276627477e-03,-1.664928284789421106e-02,-2.403017076724350831e-02,8.437375168631325195e+00,1.690869587436050278e+04,7.329833704999886095e+02,3.489386013830635784e+04
6.300000000000000044e-01,-4.590943263906207758e-03,2.773678341648485885e-03,-9.898079008955134109e-03,-6.129297733294566258e-02,1.004678118043213636e-01,8.428297468536307235e+00,1.691126997111656965e+04,1.182097315985983869e+03,3.453615484001286677e+04
6.340000000000000080e-01,-2.561799193133890845e-03,1.640581490380707943e-03,-5.748186645343416473e-03,3.056533243205733497e-02,6.012770576385909060e-02,8.542612721099507311e+00,1.701444048750253933e+04,9.527189266076990179e+02,3.426282648535872431e+04
6.360000000000000098e-01,-1.632864401684099758e-03,6.424669216163080747e-04,-2.130693476304142738e-03,2.336310589615717137e-02,-7.110097597826253030e-03,8.524631917987477436e+00,1.709262413904945788e+04,7.526994556426373038e+02,3.443733840453686571e+04
6.420000000000000151e-01,-4.053764888751740236e-03,3.027161162473648252e-03,-9.631892020859976478e-03,9.015878055997836316e-02,-2.470859249810976668e-02,8.398366313626482338e+00,1.727306501155618753e+04,1.010340389705785014e+03,3.422821778620620898e+04
6.440000000000000169e-01,-1.678003432517292991e-03,8.602977935217766010e-04,-3.583722186903851893e-03,2.528346066283132521e-02,3.257562363467664951e-02,8.284004420312266248e+00,1.725871328988107052e+04,9.600197040823042016e+02,3.440935886153192405e+04
6.480000000000000204e-01,-2.487692670658545741e-03,1.570944066513855304e-03,-5.948816782156375257e-03,-1.207142823006567001e-01,-7.241503846268022848e-02,8.316912766795665490e+00,1.723828255282318787e+04,9.292405785075451377e+02,3.428937169337882369e+04
6.560000000000000275e-01,-7.081928895048753350e-03,3.584996292244829481e-03,-1.404322392385373361e-02,-4.536597113217672589e-02,5.517255194735445900e-02,8.383744501717020015e+00,1.744985188319187728e+04,9.581031082116362541e+02,3.449851557194253110e+04
6.580000000000000293e-01,-1.944260838037410689e-03,7.731561332635953580e-04,-3.758196794058184763e-03,2.516895916935566260e-02,-1.010114786333568410e-01,8.359162689306707250e+00,1.701573632810537310e+04,1.188726536377356751e+03,3.441314303806312819e+04
6.640000000000000346e-01,-4.640018145424327188e-03,3.511772567993345310e-03,-1.153855100782087174e-02,5.787525099210515112e-02,5.161294847291847399e-02,8.337082013465909824e+00,1.679562509788978423e+04,8.308320784318627830e+02,3.477009744091869652e+04
6.660000000000000364e-01,-1.878830284504724420e-03,1.410282861320662478e-03,-3.845565703764205340e-03,2.208654389872706514e-02,1.862440279987040148e-01,8.396453455840919844e+00,1.725333412104419403e+04,9.124484872861614804e+02,3.477915513702305907e+04
6.700000000000000400e-01,-3.480649310919505142e-03,1.858869127898665156e-03,-8.667101897624146858e-03,-4.976574012018836202e-02,-1.312292746044744704e-02,8.405672377349034718e+00,1.723682569917507499e+04,9.103310505247829951e+02,3.448279621754018444e+04
6.740000000000000435e-01,-4.043137142394093511e-03,2.203753574307126296e-03,-8.357335763026177422e-03,-4.321534282803900229e-03,-1.299199893410558438e-03,8.276711764929627790e+00,1.715584649652778899e+04,8.014472521986920128e+02,3.451579079062419623e+04
6.800000000000000488e-01,-5.601450334664587714e-03,2.761667328794468849e-03,-1.345373469270285879e-02,-7.256052622050472578e-02,-1.139488772304524979e-02,8.384052521840187566e+00,1.715140539518214428e+04,6.368741546894575549e+02,3.447866346711134247e+04
6.860000000000000542e-01,-6.309128787890376858e-03,3.870144786712338345e-03,-1.447482357563694214e-02,-3.939780436315876155e-02,-1.393080044067113860e-02,8.403055761734007589e+00,1.703300429105562944e+04,1.160007848210674638e+03,3.416010482918511843e+04
6.879999999999999449e-01,-2.625126154617520371e-03,1.458573749972973382e-03,-4.211967603148057161e-03,8.279367676420559818e-02,-7.485140472945741967e-03,8.431448261091514240e+00,1.701767401390361556e+04,8.690862221161578418e+02,3.470047741428278823e+04
6.919999999999999485e-01,-4.061733677922354201e-03,2.173687154814013273e-03,-9.906148492784053183e-03,-3.745507884825337308e-02,4.875466383445602181e-02,8.429485502174292932e+00,1.708243878542615857e+04,1.307999967902213484e+03,3.464326354685283877e+04
6.979999999999999538e-01,-6.679260878340829988e-03,3.460778954387830342e-03,-1.412988853524151968e-02,8.062254473473216831e-02,6.040242247803011971e-02,8.447373679006487279e+00,1.701127090294770824e+04,1.008217183648116247e+03,3.444775282701702235e+04
7.019999999999999574e-01,-4.454273279981781596e-03,2.854794215735681397e-03,-9.988990149846124766e-03,-4.492463199062095291e-04,2.090695359067092779e-02,8.487244933532840818e+00,1.725541310191956291e+04,7.054879379946671634e+02,3.435749790743373160e+04
7.059999999999999609e-01,-4.493293534824951453e-03,3.173499650074856557e-03,-9.849322864326158153e-03,-4.705172322407589341e-02,-5.258684265993808504e-02,8.413168732313694775e+00,1.717716805735228627e+04,1.198296614480024346e+03,3.409222650296135544e+04
7.099999999999999645e-01,-5.309393012479231982e-03,2.545370528890241856e-03,-1.014595935776888003e-02,4.249840425680093126e-02,-6.919957999136214233e-02,8.391653808170604023e+00,1.735376814893095798e+04,9.351363681047298542e+02,3.415369761158264737e+04
7.139999999999999680e-01,-4.794852312512344616e-03,2.654662529859173805e-03,-1.063023577620368296e-02,-3.597362213163170924e-04,-1.861902358993271223e-01,8.379491037214910065e+00,1.651034400021535839e+04,6.675803761777027603e+02,3.451300520098659035e+04
7.199999999999999734e-01,-7.373797344320923847e-03,4.588048433938648855e-03,-1.596644988752238259e-02,-5.831423394685323995e-03,-1.386099907870313834e-02,8.516840099686811882e+00,1.707519712264790724e+04,1.084247102113178471e+03,3.441129188560592593e+04
7.239999999999999769e-01,-4.899746762147498720e-03,3.043549483749120616e-03,-1.119295255368909711e-02,-9.482424010819412441e-02,-6.981528137999656880e-02,8.178562082454297055e+00,1.687397859126389812e+04,8.827824894252636341e+02,3.452384490654385445e+04
7.279999999999999805e-01,-4.551302161652989731e-03,2.921654541635188614e-03,-1.206993213055939686e-02,-3.320755551784854154e-02,-3.394248003010399972e-02,8.355105125189391302e+00,1.713143286644304317e+04,8.105326253305568116e+02,3.469123940950520773e+04
7.339999999999999858e-01,-8.714109562848822502e-03,4.798780125129430141e-03,-1.768525691764788813e-02,1.000403201544827342e-01,7.126525466849943646e-02,8.404471144922579740e+00,1.696654272584116552e+04,7.950208229657009724e+02,3.441346497171081137e+04
7.379999999999999893e-01,-4.860738883310978045e-03,3.550624595604626003e-03,-1.210460071933731722e-02,-2.422486696604754172e-02,8.500690953281798967e-02,8.396273612536900188e+00,1.729276289491213902e+04,9.371349763504833845e+02,3.438442226943842979e+04
7.419999999999999929e-01,-4.872324447161863019e-03,2.350697252796854746e-03,-1.043792202828541099e-02,-6.189781519697545864e-02,-1.454647288691983953e-01,8.360871597264933897e+00,1.726374643047601421e+04,1.375528990664427283e+03,3.455878318918201694e+04
7.459999999999999964e-01,-4.488048540187416190e-03,2.913720789807343944e-03,-1.019780089390871433e-02,7.009655370684746145e-02,1.896964610382856631e-01,8.403106956018152829e+00,1.732258544799889933e+04,1.162420949024776291e+03,3.440193881347499700e+04
7.500000000000000000e-01,-4.955252243387618487e-03,3.084188731088270945e-03,-1.076494601836748034e-02,-5.765562339624835664e-02,-1.011646255276500567e-01,8.444285827695594548e+00,1.708956519395829673e+04,7.158207605945096930e+02,3.447935787849624467e+04
7.560000000000000053e-01,-7.167171923989755326e-03,3.796813744907122541e-03,-1.617960355042377327e-02,-1.417003988742192022e-01,4.432524245660779405e-02,8.466603954332466486e+00,1.696322030614743562e+04,8.853913410259998500e+02,3.437466725930663961e+04
7.600000000000000089e-01,-4.692459310099219259e-03,2.639429394903872617e-03,-9.844241970610784556e-03,4.304071647274426010e-02,-2.049684976958858831e-02,8.445376443174914982e+00,1.702813940547802486e+04,1.065554281869827264e+03,3.449630463446231443e+04
7.640000000000000124e-01,-4.561558086146783562e-03,3.132704464257645392e-03,-9.992421321199145001e-03,2.065230439834523507e-02,-6.754916491076870533e-02,8.553329569225232021e+00,1.672382672994887980e+04,8.193495879895202734e+02,3.422686298038226232e+04
7.700000000000000178e-01,-6.249311697299274326e-03,3.705865617223602984e-03,-1.490529696664337836e-02,-2.336123796535565997e-02,6.273475823818014385e-02,8.194819491272514966e+00,1.712941877427853979e+04,1.060192754329413447e+03,3.456925306391029153e+04
7.720000000000000195e-01,-1.952659896090962102e-03,9.019306528013348043e-04,-4.857321906609665327e-03,1.133394351605209738e-01,1.208678967691666495e-01,8.400438590963464236e+00,1.693057724646150018e+04,1.010850807153827191e+03,3.442934057865716750e+04
7.780000000000000249e-01,-6.318271199581651856e-03,3.509758196884058511e-03,-1.409802103118380778e-02,5.294961926598101137e-02,4.421386446466839260e-02,8.343952637446250264e+00,1.686245691618714409e+04,1.106311484222599574e+03,3.467774829206308641e+04
7.820000000000000284e-01,-4.280957242889984332e-03,2.517811767468683230e-03,-8.713933427157163902e-03,5.188679465135661445e-02,-7.074178954477131076e-02,8.346810186331452996e+00,1.726413127746316241e+04,8.462026568751405193e+02,3.474754328976281249e+04
7.860000000000000320e-01,-3.796454575765025388e-03,2.173204756521419489e-03,-8.583112079474182823e-03,1.005067835956975353e-01,7.889023423583911565e-02,8.338612248170118590e+00,1.698592365695801709e+04,1.089343452397476767e+03,3.442209768183393317e+04
7.900000000000000355e-01,-3.408213820105364476e-03,2.173416128004684606e-03,-8.827426839619933671e-03,-5.581144073551264073e-02,-5.729200663823025286e-02,8.459459819089929056e+00,1.703752399890934612e+04,4.971800913994007942e+02,3.446252045512793848e+04
7.960000000000000409e-01,-5.111860082461844833e-03,2.981904482311450392e-03,-1.181159814731745639e-02,-7.828435861418521491e-02,2.670979100374923712e-02,8.460652938252657407e+00,1.709776077585775784e+04,8.846982631313260299e+02,3.485920981615894561e+04
7.980000000000000426e-01,-1.659218154546334128e-03,1.137557118499234275e-03,-3.644137405044779385e-03,-1.755330338745718366e-03,8.152209604877300175e-02,8.372377454241830108e+00,1.685610842621455959e+04,8.551423390203307235e+02,3.434667630165084847e+04
8.040000000000000480e-01,-4.709726178190386942e-03,3.418242952977013863e-03,-1.105648957626274853e-02,-1.241875568893029656e-02,-8.552891966291154002e-02,8.483355140158581165e+00,1.697092287739297899e+04,1.162501764459470678e+03,3.480596290308613243e+04
8.060000000000000497e-01,-1.746204233220597681e-03,9.498917017420759230e-04,-3.316937062589662890e-03,-5.886314714431199746e-02,2.585457523152696196e-02,8.391944158871332604e+00,1.694438430749122563e+04,8.245215698883200730e+02,3.429840623525082628e+04
8.120000000000000551e-01,-5.328532201447237771e-03,2.610924155352484059e-03,-1.011862986087850788e-02,-8.299094762664357972e-02,-5.484994561182398448e-02,8.514065939153283580e+00,1.733062116830465311e+04,1.179701369496818870e+03,3.450109474505379330e+04
8.179999999999999494e-01,-4.237667155866997777e-03,2.672255027634010214e-03,-1.023199892968963687e-02,2.226646702895287988e-02,-8.858782681623603161e-02,8.423574483702806148e+00,1.680963401870735834e+04,7.121576040049576477e+02,3.455457929168195551e+04
8.199999999999999512e-01,-1.300889271168226063e-03,8.277393819884600393e-04,-3.042061808902964994e-03,-6.967015041574770549e-03,2.861848911275478025e-01,8.421877724849897717e+00,1.718427009707003890e+04,5.658817030938012067e+02,3.445987549137497263e+04
8.259999999999999565e-01,-3.900463991957169030e-03,2.950916824570780188e-03,-8.508298192894723708e-03,-2.676016512545148149e-02,1.152384365856736481e-01,8.243324173173174785e+00,1.738974990704323500e+04,9.220393301902400935e+02,3.480894726363845984e+04
8.299999999999999600e-01,-2.843017770598976757e-03,1.160931590182925346e-03,-6.157293364393093271e-03,1.308642321050555377e-02,1.633808100425854226e-01,8.388174844834969335e+00,1.720285244266128575e+04,7.550956466442462443e+02,3.446569960857938713e+04
8.339999999999999636e-01,-2.545700544190002655e-03,1.396149141779612531e-03,-5.210323514085991869e-03,-1.404429344747805397e-01,-3.744440177038369649e-02,8.520082663571090009e+00,1.705281787615988287e+04,7.804834236181136475e+02,3.433535207538448594e+04
8.379999999999999671e-01,-2.222981409695021573e-03,1.396361566057412575e-03,-5.533196012501130981e-03,3.665375441284524083e-02,-7.471666769389072316e-02,8.340386912542738784e+00,1.736765341695287498e+04,7.757676237672201296e+02,3.473003466423224017e+04
8.439999999999999725e-01,-3.192679837842089460e-03,1.833677016452715846e-03,-7.326281496147999880e-03,-4.199315818366106817e-02,2.595595216984905584e-02,8.510313997079794746e+00,1.699302980516064781e+04,9.591636364745766059e+02,3.463065793465577735e+04
8.459999999999999742e-01,-1.095395755655283231e-03,7.665814828987969161e-04,-2.535895744521231808e-03,9.336612330200276533e-02,3.388160655566962998e-02,8.286102469539585513e+00,1.696169235442483478e+04,1.073523890585864820e+03,3.412826552005378471e+04
8.519999999999999796e-01,-3.335917782269635229e-03,2.134267833495780229e-03,-6.187262311534855869e-03,-1.066062786992482136e-01,4.025617792831417963e-02,8.284941325193280193e+00,1.716138148538840323e+04,4.885573410288554896e+02,3.447894273056329985e+04
8.559999999999999831e-01,-2.357486162023897120e-03,1.409089753157208563e-03,-4.464119703599131114e-03,-1.407767516581667419e-02,2.093722611553370389e-02,8.302398695301175024e+00,1.724102405333679417e+04,1.083943016808704670e+03,3.427262580750821508e+04
8.599999999999999867e-01,-1.982195304997338980e-03,5.277108559737556624e-04,-4.416597744271150323e-03,-8.116932982173549749e-02,-1.257590309375742482e-02,8.440229309680805869e+00,1.685105502488288403e+04,8.314306471885582823e+02,3.455866313292673294e+04
8.639999999999999902e-01,-1.610661353295351084e-03,1.068174487494937940e-03,-3.308007501245629166e-03,9.395731783475813614e-02,4.625419614414449238e-02,8.404118705912617671e+00,1.668478980534303264e+04,9.615503479182946194e+02,3.458286320660675847e+04
8.699999999999999956e-01,-2.039185446350856665e-03,9.600405414135829152e-04,-4.939943847498344531e-03,-5.788554875634475960e-02,-9.472829217986379613e-02,8.355029922188467850e+00,1.702153926758098896e+04,1.065349626369824591e+03,3.456604159581931890e+04
8.739999999999999991e-01,-1.270310026653925783e-03,7.104406188210585314e-04,-3.330014392498680757e-03,3.918164344069883370e-02,2.343257996588015563e-02,8.221584620874800464e+00,1.697160880661407282e+04,5.912245881800911320e+02,3.454869798655826162e+04
8.780000000000000027e-01,-1.405155116002606338e-03,5.791395686519694788e-04,-2.605774940504869235e-03,-6.124463002663529249e-02,9.626971186050477247e-02,8.404585453632423153e+00,1.689226361401583199e+04,8.527796140579999928e+02,3.461533978786712396e+04
8.820000000000000062e-01,-9.290936454261421954e-04,9.539290609642418544e-04,-1.802702103692076403e-03,-1.142955754585505690e-01,1.929250713815370832e-01,8.395502516522062919e+00,1.734875215076196764e+04,9.568526901704025249e+02,3.462984502626734320e+04
8.860000000000000098e-01,-1.352781122626913997e-03,6.795226366236482244e-04,-2.610073889734737355e-03,3.695717698226034381e-02,2.859111669031284483e-02,8.367062579494753294e+00,1.679735784352103656e+04,1.011472806106148028e+03,3.451162357181130938e+04
8.920000000000000151e-01,-1.684832903976073507e-03,1.046537133087161245e-03,-3.417066523335628592e-03,-5.645528984401795153e-02,1.731596103246036134e-01,8.482181581274632620e+00,1.731225370964269678e+04,8.600646190540170437e+02,3.447669355723595800e+04
8.960000000000000187e-01,-6.584782930570496490e-04,2.862900369269399926e-04,-1.672187529388999977e-03,7.366196528965292256e-02,4.335697152691405515e-02,8.313675038575626175e+00,1.727937953027080584e+04,9.464709652497288062e+02,3.430966061076628830e+04
9.000000000000000222e-01,-7.849007815435882522e-04,7.137797066838017521e-04,-1.471216630391077680e-03,1.118983343195531499e-01,-7.587154675981354346e-02,8.421723229438375924e+00,1.756684651984729135e+04,7.564156802666068415e+02,3.451085246256163373e+04
9.040000000000000258e-01,-6.713216013996533898e-04,5.085654072564650902e-04,-1.235719155308939460e-03,-1.330798910892387887e-01,-1.764783952722999150e-01,8.424662872603279951e+00,1.714201789681081209e+04,1.015736849700634480e+03,3.448680199150292901e+04
9.080000000000000293e-01,-5.925150793493632901e-04,2.857450701598453907e-04,-7.515242533064121376e-04,-6.336229022227203578e-02,-1.721573285665699282e-01,8.443333013876017645e+00,1.703959869042384162e+04,9.188969629115072166e+02,3.430840581237067818e+04
9.140000000000000346e-01,-2.215984009590876973e-04,3.031624059737886528e-04,-6.904266553882633601e-04,1.826181082711947345e-01,1.115785896291420498e-01,8.376323585284643158e+00,1.748935642704199563e+04,9.217917272068641523e+02,3.463838811125156644e+04
9.180000000000000382e-01,-2.084011172183633379e-04,-8.092905182707984277e-05,-4.943109822901055675e-04,5.320548089337393850e-03,6.942617741161731526e-02,8.492168560794761234e+00,1.701068787755145968e+04,8.958345726449400672e+02,3.443565764688513445e+04
9.220000000000000417e-01,2.726084283498299540e-05,-2.685996351361491399e-04,-4.158856627561647885e-04,-2.426324326850888558e-02,-2.251721902011321469e-03,8.423178404391068241e+00,1.677663228468701345e+04,9.332657444523470076e+02,3.444496993560580449e+04
9.260000000000000453e-01,1.193930860254801288e-04,1.497178877230829802e-04,5.050306638587744382e-04,5.109571345535873776e-02,-1.629366122785130475e-02,8.387848289422727532e+00,1.730084883443466970e+04,7.336609879020022618e+02,3.441220478190860013e+04
9.300000000000000488e-01,3.023978073675971331e-04,-1.379767163352472179e-04,3.797978635543891796e-05,1.204635124258380541e-01,9.646689819432302526e-02,8.438025608229024144e+00,1.690211652934449376e+04,1.242112715501352795e+03,3.435589414881113771e+04
9.340000000000000524e-01,-3.741126066846190042e-04,7.604396075250569964e-05,-3.196824090087066299e-04,1.489531169026970248e-01,-3.757394574315377905e-02,8.534229236576637234e+00,1.718349653324135215e+04,1.151087355175726316e+03,3.449523227761275484e+04
9.399999999999999467e-01,3.112125339024528485e-04,7.572773095811593668e-05,1.995528800984875263e-04,5.014090146432072931e-02,2.695886008820562729e-01,8.297789110000231005e+00,1.680994264158041187e+04,7.014420480407839023e+02,3.468900713720207568e+04
9.439999999999999503e-01,-5.178641106440315216e-04,-1.148826575227620902e-05,1.165966096977962035e-04,-5.330967552655909575e-02,3.004285842054787992e-02,8.431292426281022045e+00,1.683233194400091452e+04,1.039667330213595505e+03,3.454541429801054619e+04
9.479999999999999538e-01,-1.204254844341855554e-04,-9.481263267755436178e-05,8.059507833881511627e-04,1.683555935848884411e-01,-6.126129492130861359e-02,8.473927437492744019e+00,1.714783391044891323e+04,1.054921512537570607e+03,3.434352143267881183e+04
9.519999999999999574e-01,-3.472611272601514943e-04,7.965544038840832589e-05,9.107771879359018510e-04,1.022042858083790917e-01,5.403252845600848425e-02,8.317229100126336760e+00,1.688725401807119124e+04,1.101688036830628334e+03,3.440215277625429735e+04
9.579999999999999627e-01,-7.006663820771112314e-04,-1.429026907756531038e-04,9.542739760455471766e-04,1.228087599040588868e-01,9.807097626992909711e-02,8.448285661649448386e+00,1.654542013284665882e+04,1.088779015462072493e+03,3.432375884017580393e+04
9.619999999999999662e-01,-5.521059895863847334e-04,5.757376437170538840e-05,1.334006320926009719e-03,2.174501503315394088e-02,1.380284889148918059e-02,8.391320747106183475e+00,1.716518382805369765e+04,1.231946183020340868e+03,3.452661605780315585e+04
9.659999999999999698e-01,-7.829484958678390848e-04,1.487299725123405743e-04,2.093281172339608084e-03,5.839162155149865002e-02,-2.597254516964029106e-03,8.326674332329684347e+00,1.726700447710266963e+04,9.930136581123033466e+02,3.482919742895744275e+04
9.719999999999999751e-01,-9.743028902408383193e-04,5.200692400454628745e-05,3.253865498788877271e-03,-8.348306087662146768e-02,-6.840029313461346017e-02,8.416587418516247254e+00,1.687058769585835034e+04,9.614473298937252821e+02,3.465308345126620407e+04
9.759999999999999787e-01,-9.479245723036544991e-04,1.346679087909385974e-04,3.620436660368121177e-03,2.308567930931817395e-03,1.280770935463677179e-02,8.439990843313346147e+00,1.703850313224032652e+04,1.184611299105880107e+03,3.444019424142489152e+04
9.799999999999999822e-01,-1.113834672087472225e-03,9.113803287847234511e-05,3.432786886147415166e-03,-4.811293130743639346e-02,1.177709532592031705e-01,8.375450672739788160e+00,1.747382039052784239e+04,1.371076469927564176e+03,3.457776899813406635e+04
9.839999999999999858e-01,-1.057741427516886972e-03,3.949738207309918365e-05,2.276473825378482786e-03,-3.183130836475933645e-02,3.516062309261955288e-02,8.243703886858749996e+00,1.718163782506382267e+04,1.191521526494964064e+03,3.429474081928581290e+04
9.879999999999999893e-01,-1.908013938178122499e-03,1.435241020928739125e-04,3.336828334194157607e-03,-6.182594737245417083e-02,7.697580190848753168e-02,8.252025217983899097e+00,1.682243992744558273e+04,1.203502905890998136e+03,3.457623610417619784e+04
9.919999999999999929e-01,-1.362365174364240858e-03,3.850285518616156235e-05,3.768730330892149268e-03,9.841432567910837759e-02,1.214443398084509018e-01,8.366906144908806908e+00,1.703155479445603123e+04,9.631678229224593224e+02,3.406382490014923678e+04
9.979999999999999982e-01,-2.430156875778946481e-03,1.940762089746467809e-04,6.024670777445515282e-03,2.906066883531306655e-02,8.843848918156009542e-02,8.358732060761667526e+00,1.703847468617931008e+04,8.152136203506396441e+02,3.470034096702501847e+04
1.002000000000000002e+00,-1.698120881164656443e-03,1.472511894632655416e-04,4.183318886293843110e-03,7.742452095374104115e-02,-6.196153325458542832e-02,8.357823947988260116e+00,1.726685871520156434e+04,1.070847582346256331e+03,3.459968331889821275e+04
1.006000000000000005e+00,-1.361721031360735605e-03,1.580011150533089961e-05,4.968630050901459184e-03,-6.257920578050643612e-02,2.313052639041238839e-02,8.495178148946093799e+00,1.678675195825778064e+04,1.073009966214649012e+03,3.464475509596370830e+04
1.010000000000000009e+00,-1.492800172595890344e-03,2.079788034315660072e-04,4.641510666065906156e-03,-1.092031064820240399e-02,-1.124537274634495876e-01,8.307007597871812976e+00,1.731505426451579842e+04,1.366752175314967644e+03,3.419748088334502972e+04
1.014000000000000012e+00,-1.557955738779106657e-03,9.412950513960236735e-05,5.191213174920297942e-03,3.767621000431106704e-02,1.491202000846610642e-01,8.430997360166427868e+00,1.700035616552762076e+04,8.151498973095571046e+02,3.455677390147762344e+04
1.018000000000000016e+00,-2.277787347258049006e-03,6.672868835449608283e-06,5.409319869550266099e-03,-2.795375956781121635e-02,5.851946853398738019e-02,8.377819593384744579e+00,1.707779214811559723e+04,9.123608945877367660e+02,3.472150632872229471e+04
1.024000000000000021e+00,-3.117804906875238161e-03,3.180408719159881514e-04,9.314712488511463218e-03,-2.724157819915315470e-02,-8.641989439066370682e-02,8.516213096931563697e+00,1.686302906392153091e+04,7.558288093424184808e+02,3.432628258460171492e+04
1.028000000000000025e+00,-2.635319978674840070e-03,8.037475435801599431e-05,5.906791482321005829e-03,-2.087174102538146836e-01,6.098591324378768025e-02,8.358987403934124316e+00,1.700580061391173149e+04,7.189481304792002447e+02,3.451424501812070230e+04
1.032000000000000028e+00,-1.910834807438654926e-03,-2.471576482935644668e-04,6.225078943543257623e-03,-2.992844968001604281e-02,1.360374050833615123e-01,8.337960084783192727e+00,1.704339097067172770e+04,8.034189779623252434e+02,3.469191168156194908e+04
1.036000000000000032e+00,-2.774562798681708391e-03,3.633624121294052505e-04,6.618221378560070096e-03,-5.259252797639102361e-02,-1.712592547096822640e-02,8.432686931559134180e+00,1.706378317159093422e+04,1.158800297102326113e+03,3.448605412653739768e+04
1.040000000000000036e+00,-2.975130172623810087e-03,-1.652981146464489593e-05,6.897196748721659727e-03,-3.258722885434707506e-02,-1.384472716675628490e-01,8.325231442216304956e+00,1.707061254085827022e+04,8.448010493286388964e+02,3.452228086361424357e+04
1.044000000000000039e+00,-2.974950248878144732e-03,6.167473091743761056e-05,7.233231480133306933e-03,1.121227852383587381e-01,-9.601105695412285451e-05,8.435814165754743854e+00,1.721249388225167058e+04,8.730706903991294894e+02,3.462351916905544203e+04
1.052000000000000046e+00,-5.923963637147118891e-03,5.387419768267706459e-04,1.648384703266024195e-02,-1.745540885006348353e-02,-6.195924812168285972e-02,8.538813206717831505e+00,1.691871512105889269e+04,1.096585799480106289e+03,3.441200243626676092e+04
1.056000000000000050e+00,-2.861337600323018114e-03,2.356761409233503932e-04,7.582437107966914086e-03,-1.131386306446090749e-02,-4.390527039648597918e-02,8.489985262079377648e+00,1.723934061375113743e+04,9.611981669722056267e+02,3.481673214474825363e+04
1.060000000000000053e+00,-3.223089421757092086e-03,4.444011775936778578e-04,8.359278908440940029e-03,-5.618823425377814096e-02,-5.672463600516376020e-02,8.398792361306739451e+00,1.685293008937655759e+04,6.640700942258127952e+02,3.440507746007861715e+04
1.064000000000000057e+00,-3.065669420964559685e-03,4.219362128905203508e-04,9.026854926036892088e-03,4.483297366003809528e-03,1.491899228466573094e-02,8.573588802012201526e+00,1.680849459079556254e+04,6.810305626580055787e+02,3.464355757541619823e+04
1.068000000000000060e+00,-3.179274565869685040e-03,4.045934518641320699e-04,8.756319927542340065e-03,3.268460168687678524e-02,-2.066974438518787704e-01,8.425334069873827048e+00,1.707439332680510051e+04,8.539547728927650496e+02,3.444932080384595611e+04
1.070000000000000062e+00,-1.737402514734862676e-03,1.071944243994301402e-04,4.261851678040784637e-03,7.624016644310893653e-03,-3.399576147006666896e-03,8.418586144384928360e+00,1.696014939350027635e+04,1.263749519237935601e+03,3.438219271153415320e+04
1.076000000000000068e+00,-5.764079450747229549e-03,4.873466726501307915e-04,1.380476664868925986e-02,2.017639116495011011e-03,-1.166072525267464362e-02,8.449414550237754895e+00,1.682049230602602256e+04,1.097437618973973940e+03,3.448237088954932551e+04
1.080000000000000071e+00,-3.349196351415467503e-03,3.252096469637378684e-04,9.292957714229999056e-03,-4.110885994218280159e-02,-8.694119886257749286e-02,8.651866623707903159e+00,1.746791606821584355e+04,8.416254106833542892e+02,3.468693593107483321e+04
1.086000000000000076e+00,-5.881550044626052999e-03,4.600089154833984307e-04,1.453779932967713857e-02,-5.571848742942128035e-02,8.569568793111853600e-04,8.272326644564330422e+00,1.728363527638312735e+04,8.407583886697899516e+02,3.438090837425276550e+04
1.090000000000000080e+00,-3.828740779745897372e-03,1.320952961371876224e-04,1.014800688526404197e-02,1.417486681641570538e-02,-8.605349942571922928e-02,8.360772524010501527e+00,1.721799832681368207e+04,1.050710215965582620e+03,3.425231055298115825e+04
1.094000000000000083e+00,-3.863130571545624406e-03,4.320743136381759338e-04,1.116057709132423602e-02,9.214283330745171030e-02,3.182723446834657272e-02,8.445665672320622264e+00,1.685778778047427477e+04,4.500598551651967796e+02,3.463878330346989242e+04
1.098000000000000087e+00,-3.989405787476004231e-03,6.925185965564780572e-05,1.168384263548680364e-02,-1.443684559175134885e-01,1.463151912181133441e-01,8.297837453893645687e+00,1.702476221939801690e+04,9.060842206026532040e+02,3.419827573377379304e+04
1.104000000000000092e+00,-6.605009765379786686e-03,5.586916311129370787e-05,1.627841230504442974e-02,1.327412527834505862e-01,7.762030987632377588e-02,8.446414701971976413e+00,1.686371784049695270e+04,8.432240060267307626e+02,3.439462405044384650e+04
1.108000000000000096e+00,-4.085589157206668404e-03,-7.924816402742255561e-05,1.132590790802901794e-02,-6.742517702554691461e-02,4.424645756801137003e-03,8.358382855439616677e+00,1.709800504987739987e+04,1.046356013137027730e+03,3.496135921781554498e+04
1.112000000000000099e+00,-4.560880598939595632e-03,7.703857651296723791e-05,1.192383826125001725e-02,6.811542370002541050e-03,-2.944334431271344865e-02,8.226729180351110671e+00,1.707148297793046731e+04,1.147381879843677325e+03,3.436428795242795604e+04
1.116000000000000103e+00,-3.967885820887230575e-03,2.565284212744281100e-04,1.113862359843986564e-02,9.857044295935256384e-02,-1.540408605450232019e-02,8.357217024457231247e+00,1.675268865156657921e+04,8.633395358402597140e+02,3.421642386749316938e+04
1.122000000000000108e+00,-5.990416310914042052e-03,-5.322300856362248281e-05,1.509584400946272983e-02,-4.269101823635920029e-02,2.130891003301931680e-02,8.322872958108025188e+00,1.707823443019012848e+04,7.790033844647533670e+02,3.414775817779441422e+04
1.124000000000000110e+00,-1.950656530861808987e-03,2.316168915572466489e-04,5.400834815336427036e-03,-1.850313536387710178e-01,2.533054037797833474e-02,8.441523913000851920e+00,1.740981761206094961e+04,8.251551345355900366e+02,3.420878023228054371e+04
1.129999999999999893e+00,-5.684698091615695247e-03,4.779843441666365789e-04,1.570291160293092389e-02,-1.242482009876225320e-02,-1.054513811707566279e-01,8.405398530882369101e+00,1.724840823104025549e+04,7.864938529021163731e+02,3.473430559744821221e+04
1.133999999999999897e+00,-3.693624373367431542e-03,3.136991053257970406e-04,1.000860340645916974e-02,-1.186613483108065609e-01,-9.544169337574032186e-02,8.334886521452004260e+00,1.693410217387165176e+04,8.214613163101419104e+02,3.459076218896333739e+04
1.137999999999999901e+00,-3.606748672382256975e-03,4.496171126877727704e-04,9.280082380472631093e-03,7.518706407328179520e-02,-3.974872352801047531e-02,8.360317992940920817e+00,1.718962846283099134e+04,1.072564278541922477e+03,3.450709177529014414e+04
1.141999999999999904e+00,-3.288131307935530934e-03,2.092730964867381416e-04,9.489260734398997574e-03,1.684599498711965848e-01,2.019202388520245639e-02,8.426397948473027810e+00,1.717718941067541891e+04,1.067059364501590608e+03,3.456304280994188593e+04
1.145999999999999908e+00,-3.297057031344225331e-03,4.888085204876592383e-04,9.127422664782751036e-03,-2.675795917630155452e-02,-5.960141458839850193e-02,8.214316282050663887e+00,1.704784308181127926e+04,6.439284907998605831e+02,3.463987449207859754e+04
1.149999999999999911e+00,-3.938568750885437092e-03,2.619828080039623085e-04,8.952638048619095471e-03,8.563424572501220078e-02,2.799775560450404668e-02,8.382882899217822370e+00,1.708344490948619205e+04,8.415123470560776013e+02,3.477062882667014492e+04
1.155999999999999917e+00,-5.057989687893231674e-03,1.133702912917100797e-04,1.280092380110883429e-02,-7.248569467424609281e-03,5.199974728546422065e-02,8.267365395713492049e+00,1.680029870805873361e+04,1.236318786363790423e+03,3.452022009706105018e+04
1.159999999999999920e+00,-2.965850609864420159e-03,-8.171179938922462578e-06,8.376370910765465819e-03,-4.526236115000890903e-02,-1.053469750061153815e-01,8.546699043861286427e+00,1.713654897712378443e+04,8.425354986317508974e+02,3.420338193810061057e+04
1.163999999999999924e+00,-3.092800502288508245e-03,5.780934574245494977e-06,7.564808964280811572e-03,7.781189719149234074e-02,-1.950057695229758803e-01,8.270803979412962192e+00,1.704851595633808029e+04,9.821758482171921969e+02,3.465479902931060496e+04
1.167999999999999927e+00,-3.166526136427795946e-03,2.358686053544682931e-04,8.459567083473595525e-03,-6.847751270220024319e-03,-4.980683917977118957e-02,8.286707817734594528e+00,1.703725956696798676e+04,4.943131183568816596e+02,3.422758066099354619e+04
1.171999999999999931e+00,-2.385806904905951251e-03,-8.636598036151854564e-05,7.843950621344117358e-03,1.675889289045354169e-01,1.603496651345416579e-02,8.437803256372729876e+00,1.747074249938350840e+04,7.053489815477248612e+02,3.479946620241581695e+04
1.177999999999999936e+00,-4.208239006285622967e-03,1.587723060879564442e-04,1.067604826728766991e-02,-5.385178878821265946e-02,5.030259621421193789e-02,8.365979817161147025e+00,1.689552574097923207e+04,8.793534498328392601e+02,3.464502863695198175e+04
1.181999999999999940e+00,-2.429740768680149592e-03,4.115520871225274873e-04,7.272969259731074977e-03,-1.954601297302713953e-02,4.087624247365051477e-02,8.261126052712013390e+00,1.691743494488007855e+04,1.220387871608598289e+03,3.453921585115783091e+04
1.185999999999999943e+00,-3.084814627345034387e-03,3.212369599515030793e-04,6.155849708078673516e-03,1.383551994172091126e-01,4.777846766433498787e-03,8.505500970167121366e+00,1.716418896175865302e+04,8.612715330365792852e+02,3.465155486257346638e+04
1.189999999999999947e+00,-2.412710389277606445e-03,3.120412874395970160e-04,6.474364580671442167e-03,-8.608608147966899382e-02,-8.814709723510397166e-02,8.300352366857227437e+00,1.737952569838269847e+04,8.867566005352510956e+02,3.485789757942740107e+04
1.193999999999999950e+00,-2.085876469668884042e-03,2.940245159580067905e-05,5.658066899905715708e-03,2.524549771748028221e-02,-5.149255396742768998e-03,8.358926906547804236e+00,1.695759277368362746e+04,1.058565508872239661e+03,3.461892265130666783e+04
1.197999999999999954e+00,-2.016184224527495412e-03,3.699902131718313153e-04,5.427245881488304037e-03,-8.094797141105278260e-02,-1.171262946562559581e-01,8.393856185802333059e+00,1.686952876940683200e+04,9.519111046071284363e+02,3.452615306001755380e+04
1.203999999999999959e+00,-2.922406276220756126e-03,3.577228100675856979e-04,8.136859422531785360e-03,-3.489922916222746446e-02,-6.843353772893430442e-02,8.527851293811400168e+00,1.691100059939841958e+04,9.787286030253897025e+02,3.455295010076906328e+04
1.207999999999999963e+00,-2.016618597141407038e-03,1.004491348854140496e-04,4.584781888228065330e-03,-2.716872285792013703e-03,9.573282456977287580e-02,8.353145450276301176e+00,1.706137620031032202e+04,8.959620732519498461e+02,3.450744448331090098e+04
1.211999999999999966e+00,-1.746305871980166537e-03,3.496701671702538814e-04,4.166228463223326135e-03,2.474092154673811911e-02,-1.564218079851961360e-02,8.255362324111269245e+00,1.700449315747899527e+04,9.355840911962535529e+02,3.440077270112623955e+04
1.215999999999999970e+00,-1.401368395629790271e-03,-1.091279927738072141e-04,4.641231957928771898e-03,1.241390712623875181e-01,-2.238064971948626469e-02,8.460611214658767310e+00,1.758715601621261158e+04,6.366471867051890285e+02,3.441217040594002174e+04
1.219999999999999973e+00,-1.475783720852129983e-03,3.982995716429700095e-05,4.161461572796829912e-03,-5.896836387609913355e-02,-2.492374963300341556e-02,8.325129722815434619e+00,1.697794189604021449e+04,1.300722238222502028e+03,3.427051395602434059e+04
1.225999999999999979e+00,-2.404922531010738294e-03,6.967639183114672703e-05,4.663284007364083480e-03,1.079822458278231062e-01,1.499082522266199230e-02,8.428752240939601847e+00,1.715742152556692236e+04,9.548476281359994573e+02,3.458909798092405981e+04
1.229999999999999982e+00,-1.122679113234963198e-03,1.540742378516801671e-04,3.515842063562588712e-03,1.182378963025336321e-01,8.590985228008042596e-02,8.462200248531239311e+00,1.731352937891091642e+04,1.140815979880517716e+03,3.443797792147189466e+04
1.235999999999999988e+00,-2.348027982786880016e-03,2.829348693866608460e-04,5.021363276482857484e-03,-1.152271060272449799e-01,-6.970063496604157749e-02,8.313621292032719268e+00,1.711271799037648816e+04,5.468411174050363570e+02,3.454396570502313261e+04
1.239999999999999991e+00,-1.022654451611801785e-03,-9.816026716988815047e-05,2.856642717976846761e-03,6.526953392601701764e-02,3.018846909813216461e-03,8.281152783951123197e+00,1.692241517650120659e+04,8.696950980379760949e+02,3.420020955676236917e+04
1.243999999999999995e+00,-1.454570743496598571e-03,-3.286601613933314258e-05,2.961450244976933724e-03,-1.167801681426362467e-02,-1.368359428812065404e-01,8.393463010891469622e+00,1.715337476325057651e+04,5.783747599317537151e+02,3.455344221079608542e+04
1.247999999999999998e+00,-9.229558984985411279e-04,-1.225709730106808572e-04,1.530157471168338808e-03,-1.348405613950162119e-01,3.301817169382263717e-02,8.429668073168400610e+00,1.683913367488506628e+04,7.412921311237713553e+02,3.474731604433684697e+04
1.252000000000000002e+00,-9.661501950699962187e-04,-5.396103070623848967e-05,2.411642208756454697e-03,1.644064599005890526e-01,5.977889389497640510e-02,8.362410901943045261e+00,1.718867394657227487e+04,1.126044669762751255e+03,3.482533293046319886e+04
1.256000000000000005e+00,-8.265903647734118738e-04,-1.279618718595596221e-04,2.276278112899301088e-03,7.288327578249319261e-02,-1.288277241828018893e-01,8.317099098416134595e+00,1.692656786577037565e+04,1.193153316372562131e+03,3.424255665596939798e+04
1.260000000000000009e+00,-3.775911230913252562e-04,-5.262993995412330487e-05,1.425531912633288233e-03,3.216098289893009471e-02,-1.927139814111692995e-01,8.394806172520423715e+00,1.721918323777397381e+04,8.092120327836013303e+02,3.434565481362930586e+04
1.264000000000000012e+00,-4.435232129818718057e-04,-2.345683320053511029e-04,4.566247550501780720e-04,-8.148940077048166808e-02,-2.972809603814605822e-03,8.307419279844678428e+00,1.719386004738827978e+04,1.086186851593699430e+03,3.470116472617189720e+04
1.270000000000000018e+00,-4.122078410204859929e-04,3.043636126440630706e-04,2.006342527099760475e-03,3.980933484214327356e-02,-9.871330706223093235e-03,8.515528703608206129e+00,1.711684535903036885e+04,9.293804388145413213e+02,3.462636677176305238e+04
1.274000000000000021e+00,1.898002699481104744e-05,-3.819622667160687727e-05,4.394396394518214279e-04,4.747983130705219108e-03,-7.604397818894760575e-02,8.377193557812143254e+00,1.713397804438900130e+04,1.008218243566181286e+03,3.456416824120187812e+04
1.278000000000000025e+00,-2.473803020044860348e-05,1.976559058583453158e-04,2.695927106338869440e-04,-1.087124303714737950e-01,2.261241735012905346e-02,8.447462120473499425e+00,1.723778629916152204e+04,5.904516093573495255e+02,3.449959616383381945e+04
1.282000000000000028e+00,2.458030243905493721e-04,9.725789270578480341e-05,2.999985383576739208e-04,2.115338052957434489e-01,-6.370790763106001786e-02,8.375437672172537873e+00,1.680884296113211167e+04,9.572279118316434960e+02,3.484118612000113353e+04
1.288000000000000034e+00,6.658584410705988476e-05,-5.457490146852140862e-05,-3.459815253166579913e-04,-4.417776443298773031e-02,6.328850495583191252e-03,8.429981016591893805e+00,1.698410231333803313e+04,9.284712280366455843e+02,3.467061347708704852e+04
1.292000000000000037e+00,5.819962451572379916e-05,3.611798462832739874e-05,3.391847886699565686e-04,-3.096376026568235101e-04,7.974653638681863943e-02,8.346113351383294798e+00,1.667710505207689494e+04,8.033651132958304970e+02,3.459510793063617166e+04
1.296000000000000041e+00,-2.516766072082002184e-04,1.279683737936723980e-04,1.778673499999471389e-04,8.698661363247861544e-02,3.373178630073268847e-02,8.396916619495529588e+00,1.651733949817617395e+04,7.157267407426803629e+02,3.473696428730735352e+04
1.300000000000000044e+00,-2.163135042981043695e-03,-1.722090875226915587e-04,-4.726797291402776071e-04,-2.227411014005688944e-02,1.922263829092502041e-01,8.329314920004055267e+00,1.726864251514381613e+04,9.757368591080416991e+02,3.469483853920948604e+04
1.304000000000000048e+00,-4.550602003831045669e-03,-9.163088394341189049e-05,-1.938648126772896498e-03,2.919738157422190755e-02,-7.471940684788981601e-02,8.547881852142579007e+00,1.711687077597541065e+04,1.010122875772903853e+03,3.446409884042412887e+04
1.310000000000000053e+00,-9.835413685170043413e-03,-3.161217084263575521e-04,-3.597032623784956421e-03,7.866295000816156402e-02,-6.901425038233463538e-02,8.440973494002221855e+00,1.709777387066869414e+04,7.802031983309975658e+02,3.476831262009424245e+04
1.314000000000000057e+00,-8.347431818959681962e-03,-3.773495284817578893e-04,-3.409509991386046410e-03,2.584171734336827148e-02,-5.571307011523399244e-02,8.461595826441291379e+00,1.736861164577442105e+04,1.166922826075948706e+03,3.444630723227285489e+04
1.318000000000000060e+00,-1.060808202727601089e-02,-3.671745404206551715e-04,-4.295264696354545234e-03,3.690667148335598918e-02,5.430669909985127997e-03,8.394404755106036120e+00,1.689180655102750097e+04,1.145921411910506777e+03,3.462971372040740971e+04
1.322000000000000064e+00,-1.135903673467987020e-02,-4.397707780415026704e-04,-5.202964445456546676e-03,4.042768452019222108e-02,6.198733494851565648e-03,8.402887173287203026e+00,1.713887740777508952e+04,7.766554475332950460e+02,3.460694672277741483e+04
1.326000000000000068e+00,-1.324844029830887435e-02,-4.916396679231777988e-04,-5.351421570633233676e-03,-4.958739075064771962e-02,1.287313153239443009e-01,8.309710248347220940e+00,1.686656397962621486e+04,1.019395802009102795e+03,3.479058658365591691e+04
1.332000000000000073e+00,-2.319447784912698554e-02,-6.243037310951764663e-04,-9.322306380875240023e-03,4.017872870725312101e-02,-4.118272475459108795e-02,8.545688190100600323e+00,1.738987988564652187e+04,1.031173470999001893e+03,3.425877513711647771e+04
1.336000000000000076e+00,-1.705872960526039206e-02,-6.442097466758003703e-04,-7.476704002568342923e-03,-7.158578385041772241e-02,-7.660899695704469214e-02,8.316476836629631109e+00,1.711375560224479705e+04,1.305021799381284382e+03,3.435769388548399002e+04
1.340000000000000080e+00,-1.821497895358361110e-02,-6.787699217895916707e-04,-7.376456016207292438e-03,3.147564497887903046e-02,-1.307817619237843232e-01,8.357733902245691127e+00,1.706440908739068982e+04,1.163125649802258295e+03,3.464392173119860672e+04
1.344000000000000083e+00,-1.711969662793828145e-02,-4.691942274731733618e-04,-7.171034882852295352e-03,-1.764269189589994236e-01,4.141582223173258942e-03,8.355911607863491852e+00,1.755361752344872730e+04,7.477771546919054799e+02,3.433440495863116666e+04
1.348000000000000087e+00,-1.759048120078478619e-02,-5.053691090003696899e-04,-6.263565803817922398e-03,-1.206213736773026762e-01,7.452910276515231636e-02,8.288101145299524575e+00,1.731170710069529014e+04,6.565832110541531392e+02,3.448719162058734946e+04
1.354000000000000092e+00,-2.579980266522482676e-02,-7.286563018173748555e-04,-9.916172951466415211e-03,7.129655909528251345e-02,-7.637916545745745966e-02,8.532415332785889817e+00,1.706331486665928605e+04,1.083637189584965199e+03,3.464346867399284383e+04
1.358000000000000096e+00,-1.717645410501457762e-02,-8.035155301582523482e-04,-7.132589689636234347e-03,6.734392159242044706e-02,-1.027383246269792660e-01,8.320899156472224334e+00,1.716409363881574245e+04,8.046598511436133094e+02,3.475919843622054759e+04
1.362000000000000099e+00,-1.721965190333021867e-02,-4.567925894256651365e-05,-6.275774626104613056e-03,5.525067199146767305e-02,-4.069582889893753885e-02,8.383692618961298137e+00,1.785155125097342898e+04,1.013399706806505264e+03,3.454440241578260611e+04
1.368000000000000105e+00,-2.087712112133160991e-02,-7.041372174887982087e-04,-8.170956476878005886e-03,1.112650410235000720e-01,-8.223708951507423259e-02,8.405579086162532576e+00,1.682608213969162171e+04,7.551061439524044090e+02,3.448405897450068733e+04
1.372000000000000108e+00,-1.199133094163585406e-02,-4.422738920334551033e-04,-4.221576162058223933e-03,8.460736436691855544e-02,4.818371065823302823e-02,8.384507178197729615e+00,1.697316039865234779e+04,8.734436286973239021e+02,3.486775051689138490e+04
1.375999999999999890e+00,-1.066016436844083315e-02,-8.153391236730107372e-05,-3.544422890941958861e-03,-1.982086359425814376e-02,-1.661481357160439487e-01,8.309207719394292369e+00,1.731639251572205103e+04,8.447137616851459825e+02,3.429251242092496250e+04
1.377999999999999892e+00,-4.410978159482493478e-03,-2.906372498580650672e-04,-1.825774386791297185e-03,3.118669044247165956e-02,-3.185097096865430882e-02,8.404202461910967870e+00,1.733380184516145891e+04,8.653766960536981969e+02,3.419267993909414508e+04
1.383999999999999897e+00,-1.151136910971163260e-02,-3.196904848237830865e-04,-4.203872328149157143e-03,9.173793064744331649e-02,-1.203690002367084483e-01,8.378074915782544707e+00,1.721344504024643174e+04,1.071108641554592623e+03,3.405796693197400600e+04
1.387999999999999901e+00,-5.392941986621488555e-03,-3.768023451317025429e-04,-2.223070031738151771e-03,2.032265716217847296e-02,-7.997442931931239563e-02,8.518123260242832728e+00,1.691740933184812457e+04,8.516534124710402693e+02,3.466677281385855167e+04
1.391999999999999904e+00,-3.655967065648115400e-03,-1.036219297105895503e-04,-1.519899902867081131e-03,8.078088547206208059e-02,3.402853893386684897e-03,8.548586856514461374e+00,1.697690570354670126e+04,7.122288322362056761e+02,3.466536441402498895e+04
1.397999999999999909e+00,-2.569530766611174272e-03,-1.863639631876178439e-04,-1.576831537645966268e-03,-1.213916110560485512e-01,-2.169753511787468961e-02,8.428672948025104361e+00,1.698606119648224922e+04,9.767023395272217385e+02,3.431116273676655692e+04
1.399999999999999911e+00,-2.489844324994343715e-05,-2.001447166511184265e-05,-4.924788625906082048e-05,-7.231850727829756964e-02,4.204247685859901357e-03,8.304978114930404942e+00,1.681577055528101846e+04,1.017775228252058923e+03,3.457392488858369325e+04
1.405999999999999917e+00,2.892468029303607103e-04,-2.250244369234345450e-04,-7.594163886355382556e-05,6.248527349645148499e-02,6.779639177819025975e-02,8.420778606498149799e+00,1.725400867127697347e+04,7.697309419102804213e+02,3.437209768466863898e+04
1.409999999999999920e+00,-1.865727317235276643e-04,-1.978277943324877270e-04,-4.816637130848585354e-04,-1.510974615480969174e-01,-1.022368943004319519e-01,8.445332186454560741e+00,1.733845947440831878e+04,5.789573667443874001e+02,3.476632863463204558e+04
1.413999999999999924e+00,4.011200740966259652e-05,1.042138837750358602e-04,-8.692437635648049294e-04,6.276039852772074060e-03,-2.472854858854280635e-01,8.502280305725955500e+00,1.733069494133881017e+04,1.038084755134767875e+03,3.439276166443193506e+04
1.419999999999999929e+00,4.937082575307610768e-04,-1.348837340206806928e-04,-1.223273041555471502e-03,1.597666073916602716e-02,-8.981367785846600116e-02,8.481463979411545395e+00,1.691903889447418987e+04,8.320873229324170097e+02,3.427577574681302940e+04
1.423999999999999932e+00,3.822496548199293999e-03,8.183113510020174420e-04,-2.023746209819338431e-03,-5.242644895756913559e-02,-7.871568400463310744e-02,8.428002807948912434e+00,1.689095334207255291e+04,9.974173762746336251e+02,3.465037902926253446e+04
1.427999999999999936e+00,5.606674969323358418e-03,1.042801784767771918e-03,-2.830422571163825844e-03,1.540085082028462005e-01,1.156362351508357367e-01,8.428117408250036746e+00,1.687386998680586839e+04,1.004431441176921680e+03,3.461285788019380561e+04
1.431999999999999940e+00,7.177912122164255108e-03,1.494523654006717477e-03,-2.017761116022794531e-03,4.321876536819773545e-02,4.599910813264589116e-02,8.292349003271668906e+00,1.736670215959330017e+04,9.849512500349296715e+02,3.472934107663605391e+04
1.435999999999999943e+00,1.006191347313592326e-02,2.066838737690871158e-03,-2.343679184397230979e-03,5.841374999326908596e-02,-8.177948926475604730e-02,8.424656121641378448e+00,1.716745132686987563e+04,1.065634657723610871e+03,3.427757972721743135e+04
1.441999999999999948e+00,1.870367391667746709e-02,4.100660580026251750e-03,-6.313996245799405674e-03,-1.492133657896244081e-02,2.258703319109959737e-02,8.407830343614280721e+00,1.705150737413758179e+04,8.723691973653909599e+02,3.447878504524732853e+04
1.445999999999999952e+00,1.459892021843295883e-02,3.584889236948365834e-03,-4.203597764447875550e-03,-2.540100486708375960e-01,-3.990481991626619943e-03,8.451840866690979226e+00,1.715995837053713331e+04,1.004386774795352721e+03,3.460149689239697909e+04
1.449999999999999956e+00,1.666305566170505487e-02,3.697030826536530645e-03,-3.736694671983818022e-03,4.138583672257512003e-02,-2.706903947366983906e-02,8.535822266178195505e+00,1.703983949669087815e+04,7.430098991162533366e+02,3.473748585291699419e+04
1.453999999999999959e+00,1.894460764650177792e-02,4.122465178939205104e-03,-4.874868726390232769e-03,2.994775879130444352e-02,1.893799741432989833e-02,8.485631778398941449e+00,1.714070973555571982e+04,6.914654207254735638e+02,3.448903085680770164e+04
1.459999999999999964e+00,3.151858402276339066e-02,7.779896104496297586e-03,-7.699557287552189627e-03,3.398827315298844770e-02,-9.217364861983554092e-02,8.193148303479055983e+00,1.673641271541314200e+04,8.993802184548736705e+02,3.448854619279069448e+04
1.463999999999999968e+00,2.355228900267641520e-02,5.422808490292176965e-03,-5.440436811886091226e-03,-3.671225642981418985e-02,4.793621413983531476e-02,8.368267126718393456e+00,1.696080396039440893e+04,1.201442914474221197e+03,3.430433002205565572e+04
1.467999999999999972e+00,2.551986507094164414e-02,5.912903185952460630e-03,-6.487260783762568636e-03,7.044018430789146523e-02,-2.620109959146554521e-03,8.506092554446976095e+00,1.720670420869316149e+04,1.321398508058308607e+03,3.473488122273834597e+04
1.473999999999999977e+00,4.066816696205596132e-02,9.239026863626124617e-03,-1.026533486910659147e-02,-2.194422276592561741e-02,2.552597804006432464e-02,8.440407953724706758e+00,1.706323803015964950e+04,6.880128331236696795e+02,3.426546092786085501e+04
1.477999999999999980e+00,2.648883219841986422e-02,6.457028893290639449e-03,-6.767226994736918154e-03,1.287348147958440325e-01,-1.561764846977778121e-01,8.359428698200776608e+00,1.698911684515940578e+04,7.782549945496591590e+02,3.438957769812134939e+04
1.481999999999999984e+00,2.613127203570069987e-02,6.137490900652920953e-03,-6.563301794632619805e-03,7.368315834101020478e-02,1.178470302971933725e-01,8.418087941907861804e+00,1.700466484170025433e+04,8.949571799951166895e+02,3.462198222408047150e+04
1.485999999999999988e+00,2.710876767493609549e-02,6.455583311378815942e-03,-6.759867998243577342e-03,-2.237241989176695298e-02,5.251659963774937823e-02,8.470881292317862687e+00,1.682816307110072739e+04,7.874341965766549265e+02,3.449809541550110589e+04
1.489999999999999991e+00,2.641513781107698855e-02,5.569226823480692527e-03,-6.857672726018753349e-03,-2.818234776031227837e-02,1.756062505772198329e-02,8.497069290316199286e+00,1.702815553263249240e+04,1.276738395428633339e+03,3.457387638309390604e+04
1.493999999999999995e+00,2.667259622500246091e-02,6.223704145957752870e-03,-7.468370805634901889e-03,1.605724766853544039e-01,5.308110837405866783e-02,8.401637210984050697e+00,1.675408898842149938e+04,1.007726720113056331e+03,3.463457834098928288e+04
1.500000000000000000e+00,3.910331982544770768e-02,8.625680278795098271e-03,-1.051668621156765134e-02,-3.017733045673201206e-03,3.884099987691547878e-02,8.388217730448561227e+00,1.703959039859353288e+04,6.995437667495511960e+02,3.486857273162473575e+04
1.504000000000000004e+00,2.391130345760424450e-02,5.849556367061283825e-03,-5.982416100198867381e-03,1.725294685179429299e-02,-9.600536220785441111e-02,8.506858648963318004e+00,1.685676508499857300e+04,1.064288372153324644e+03,3.456875402340569417e+04
1.508000000000000007e+00,2.105791167599605981e-02,4.565674090469271432e-03,-5.333848049587965219e-03,-9.457823555745870081e-02,-4.274670659263344469e-02,8.406129034530891886e+00,1.717795104473523679e+04,1.269075439089873953e+03,3.463864192476918106e+04
1.512000000000000011e+00,1.999338775457834907e-02,4.765796026113928822e-03,-5.124637328934489484e-03,1.682154889593180380e-01,-4.128329306491256706e-02,8.342002145277325198e+00,1.695391575401826412e+04,1.156438003419026700e+03,3.440912692952938960e+04
1.516000000000000014e+00,1.723161660911029167e-02,4.241115830024720992e-03,-4.056321139481820943e-03,-4.538602922000682660e-02,1.341052825854419650e-01,8.161755026058088447e+00,1.709244071879663170e+04,6.969450037947381134e+02,3.433187648646659363e+04
1.520000000000000018e+00,1.566962485767875446e-02,3.424812370988038202e-03,-3.895637870769082245e-03,-8.345313126972461748e-02,2.246903741818110090e-01,8.447556338620751504e+00,1.707034421385122187e+04,1.019377526365779204e+03,3.420315602798548207e+04
1.526000000000000023e+00,2.007654976648860778e-02,4.472324691057439315e-03,-5.042894997471154307e-03,-9.227397867027679890e-02,-7.527366846483050933e-03,8.403599593733014572e+00,1.715560374437185965e+04,7.937357160809842753e+02,3.477784275998431258e+04
1.530000000000000027e+00,1.111452664099552706e-02,3.113871220964888140e-03,-2.526154291671817848e-03,7.155832974685312486e-02,1.508463931527240509e-01,8.430565299993242334e+00,1.699156660864562218e+04,7.368445550881017425e+02,3.454610101254091569e+04
1.534000000000000030e+00,8.745270471751725658e-03,1.695661884688199434e-03,-2.457053707856910948e-03,-4.488681642794573046e-02,6.275877177963901099e-02,8.339296291427942265e+00,1.688262344002206009e+04,1.199116376157241575e+03,3.453168293795606587e+04
1.538000000000000034e+00,7.501760341135223914e-03,1.629973465836778929e-03,-2.042618268563266195e-03,-8.638957848852579779e-02,-1.508841344556555719e-01,8.266496726194880296e+00,1.702967207429515111e+04,1.069849206375784206e+03,3.433807383828185993e+04
1.542000000000000037e+00,5.416181343633649260e-03,1.140596221377670333e-03,-2.713257765107490878e-04,-7.493184946526454393e-02,-1.018162505343263302e-01,8.424240672667028917e+00,1.681039333922953301e+04,1.035276788727593157e+03,3.431988396611021744e+04
1.546000000000000041e+00,2.955263807032417530e-03,3.639542916616984197e-04,-3.719655280669119011e-04,-1.003862680461686252e-01,-2.668100704227047704e-01,8.310268264081384970e+00,1.684677723049588531e+04,1.118236804631462974e+03,3.463288115304990060e+04
1.552000000000000046e+00,1.271026627024287280e-03,3.377292123182080909e-04,-2.454409456852093218e-04,-3.929917574043809841e-02,-5.360960005951019569e-02,8.525544025854271624e+00,1.681709800536340845e+04,8.379709758873824512e+02,3.435766110791029496e+04
1.556000000000000050e+00,-5.310035166963835394e-04,-3.256821121384685853e-04,3.172081855828689807e-04,-5.118676936519440945e-02,7.119716409192528017e-02,8.396341166252064170e+00,1.740086154695981168e+04,1.131675128673052541e+03,3.445066278569969290e+04
1.560000000000000053e+00,4.332842913051693657e-04,-1.598196753858414736e-04,1.470933162107505323e-04,-3.209306365700595118e-03,-7.292241221207187984e-02,8.392998788033599666e+00,1.716969581578027282e+04,6.959429942505548752e+02,3.440214425004724762e+04
1.564000000000000057e+00,-4.234120739363412660e-05,2.636126262699518960e-04,-4.287256580120793123e-04,-6.391780493667817420e-02,1.150935497397103345e-02,8.378095224811763941e+00,1.707886167122278130e+04,1.044333816745707736e+03,3.451296469093112682e+04
1.568000000000000060e+00,2.063773167535795216e-04,2.791976385706039978e-05,-2.062738743302041657e-04,-7.899579673617675157e-02,8.053636077601050713e-02,8.433781108947846050e+00,1.710643262473780123e+04,9.723506886752110177e+02,3.450022919117355923e+04
1.572000000000000064e+00,1.825154005614750040e-03,-3.646509916380838217e-04,-6.034641180243372188e-04,-3.728240476662415814e-02,9.517390711068971637e-03,8.390895977462198729e+00,1.700165531045819444e+04,8.754392922271819089e+02,3.457638817631820712e+04
1.578000000000000069e+00,3.644543635384472555e-03,-7.696017636764502763e-04,-3.291394629658469032e-03,-7.248831723884857636e-02,3.341593401869887535e-03,8.345783207999904363e+00,1.713793525206319828e+04,9.964928071734123023e+02,3.430460123266848677e+04
1.582000000000000073e+00,3.155852959835702895e-03,-6.955435530469931482e-04,-3.047015809658476255e-03,-7.896021928449931115e-02,-1.387516216173782235e-01,8.367819791911015770e+00,1.686645100196035492e+04,1.035764672216040935e+03,3.481508106530243822e+04
1.586000000000000076e+00,4.796481334293576336e-03,-4.644900507943355004e-04,-2.505886874619174531e-03,4.802408587738943996e-02,-6.064862753042132848e-02,8.609622949484270649e+00,1.708829608045714122e+04,8.804565375456143101e+02,3.457474913104517327e+04
1.590000000000000080e+00,5.154230330752970247e-03,-7.959571443925695386e-04,-3.243367128323969544e-03,7.481624243859083534e-02,1.073983268541551100e-01,8.464719494274410394e+00,1.684003890526017494e+04,1.212842670170952033e+03,3.456740388708461251e+04
1.594000000000000083e+00,6.026870407836529449e-03,-1.162495935619891610e-03,-3.461604455677597721e-03,1.560783287755493354e-01,-6.802798579997453021e-02,8.182886462653293336e+00,1.693021725838679413e+04,9.296300309520574956e+02,3.442983021251618629e+04
1.600000000000000089e+00,1.015003666055403798e-02,-1.563487911447516542e-03,-6.057828530413930136e-03,-3.693695136481161406e-02,4.528369845538640637e-02,8.410659910330521072e+00,1.731204721228281414e+04,9.246174757115171587e+02,3.456114026083238423e+04
1.604000000000000092e+00,7.863776581083288530e-03,-1.284867867033389396e-03,-3.679712583260674481e-03,2.370549574575551294e-02,1.095981567809156954e-01,8.430020605287529278e+00,1.717005513893402531e+04,8.222148424154879649e+02,3.456840884843417007e+04
1.608000000000000096e+00,9.059268277059842611e-03,-1.380907820876519547e-03,-4.233824694370655339e-03,6.770999401971025677e-02,-7.993060993894783584e-02,8.305945236410817500e+00,1.711257474309081226e+04,6.670813480833257927e+02,3.457964287512302690e+04
1.612000000000000099e+00,9.569674925706135246e-03,-1.590401683353154195e-03,-5.237359255012680702e-03,1.362234021709781140e-01,7.768343443924365620e-03,8.345597337436080565e+00,1.705109196665196578e+04,9.931693847880127350e+02,3.453768249269510852e+04
1.616000000000000103e+00,1.092223994373096516e-02,-1.878574345383811003e-03,-5.582014603967982991e-03,-5.145013321898878750e-02,-5.485137678300427977e-02,8.338397818254447813e+00,1.711007048649311037e+04,1.227643997696857468e+03,3.430343220264615229e+04
1.620000000000000107e+00,1.201745885950048463e-02,-1.931202441060333791e-03,-4.844527782407403137e-03,-1.069589664785725869e-01,-1.259391174405082303e-01,8.381559399799675347e+00,1.699448133126588800e+04,1.100428366004898407e+03,3.462311423420196661e+04
1.625999999999999890e+00,1.703925299635365015e-02,-3.306070780958462758e-03,-8.186663686523227429e-03,-4.888361713961364430e-02,9.361611236397823776e-02,8.422548096094018888e+00,1.714931513554655248e+04,1.505365275499978907e+03,3.464848352214622719e+04
1.629999999999999893e+00,9.613253243268143899e-03,-1.905489103333081252e-03,-4.072007186077235101e-03,2.325503029297490767e-02,-6.144629071680416527e-02,8.387771780441946490e+00,1.727892376805008462e+04,9.173777581980772311e+02,3.433873982801155216e+04
1.633999999999999897e+00,8.522559092887575100e-03,-1.826913594875825570e-03,-2.675685111116669380e-03,3.135172969633589352e-02,6.139239655200398604e-02,8.390050648835169156e+00,1.700075613089138278e+04,1.115040484062152700e+03,3.460822329664009885e+04
1.639999999999999902e+00,1.178168146615042600e-02,-1.966999976138571540e-03,-4.717622193324259687e-03,9.172516805880845392e-02,2.313418689671465148e-03,8.464518339515430867e+00,1.713923900583688010e+04,9.385495426292783350e+02,3.445766507510169322e+04
1.643999999999999906e+00,6.711754063482865997e-03,-9.326247116972589133e-04,-2.601554018236344138e-03,-4.000520806018572489e-02,-1.503520981715536775e-01,8.420472111873738896e+00,1.702702914122635411e+04,1.120505251059786815e+03,3.469153829619138560e+04
1.647999999999999909e+00,5.996210646004649161e-03,-8.060675944972319797e-04,-2.230677594389533606e-03,6.207148403923354318e-02,5.038659766782501576e-02,8.433390410211837107e+00,1.686793940794504306e+04,1.128780301214638939e+03,3.440415225865452521e+04
1.653999999999999915e+00,7.361788835578734862e-03,-1.111808259194285112e-03,-3.181780776143837072e-03,-2.807764533044415645e-02,-6.543346755254264568e-02,8.444269161438006321e+00,1.715225059778028299e+04,9.461795225346041889e+02,3.483102865806342743e+04
1.657999999999999918e+00,4.185592885387367720e-03,-8.669131678851813147e-04,-9.914365108440593814e-04,3.703826554168377500e-02,-4.464681870252314860e-02,8.491104062527169205e+00,1.698149805583029956e+04,1.018212148628136902e+03,3.464617702794068464e+04
1.661999999999999922e+00,3.404549304000444813e-03,-1.173133607815510574e-05,-1.039675992094709223e-03,-7.291670040439980627e-02,-4.643246601027512660e-02,8.535361235742421115e+00,1.689367518961083988e+04,9.703112400429761237e+02,3.447795692083730682e+04
1.665999999999999925e+00,1.576171052442453067e-03,-6.316372789765475892e-04,-2.021231877181243076e-03,7.418983818121530072e-02,-2.744102663795491143e-02,8.422069325280238772e+00,1.696313128286650681e+04,8.999950890759303093e+02,3.474347658232328831e+04
1.669999999999999929e+00,1.166140414893895687e-03,-3.215873203278722691e-04,-1.179204650201406924e-03,1.425693786671966036e-02,-2.279113895791761435e-01,8.321810163779268521e+00,1.694684716966256747e+04,1.094054350658692101e+03,3.458983798893701169e+04
1.673999999999999932e+00,2.848468158175135908e-04,-2.297516256725096683e-04,-5.203710875389029340e-04,-3.004859948244921301e-03,-2.727497605111216597e-02,8.418686774457155408e+00,1.679306970545564036e+04,1.085029386241589236e+03,3.425692439633132744e+04
1.677999999999999936e+00,-1.646160308348991116e-04,-1.469332439264723071e-04,-7.865600886431739144e-04,9.612324245991420157e-02,-2.433491169216258146e-02,8.309114090234301031e+00,1.718318959387874565e+04,8.873456044627978372e+02,3.453082149679536815e+04
1.683999999999999941e+00,1.670304658791419913e-04,-1.337711314383423916e-04,-5.596714620317436769e-04,2.855527397922601879e-02,-2.475659106137669679e-02,8.384829145778807558e+00,1.681288621849536503e+04,1.008685926298819822e+03,3.470776468263178685e+04
1.687999999999999945e+00,-3.807411888422030028e-05,1.454216874832463453e-04,-7.473831747921083147e-04,-2.323351267840011170e-02,1.909398063383829780e-01,8.209762354660426809e+00,1.690673744148798869e+04,8.681937548796807960e+02,3.461678699358830636e+04
1.691999999999999948e+00,2.543413254015005546e-04,3.212790943057986691e-05,-2.673815746141555943e-04,-3.134374749152589457e-02,2.370406740486141837e-03,8.332335412141638642e+00,1.715457475163429262e+04,5.162976522025661552e+02,3.491745283424598892e+04
1.697999999999999954e+00,-9.455397560666431184e-04,-1.796034799854207128e-03,-4.863536331659865976e-05,7.689532076457544774e-02,7.094526028929695749e-02,8.393924855581429867e+00,1.716424894324405250e+04,1.119334637370953260e+03,3.450144188725568529e+04
1.701999999999999957e+00,-7.708482949781504971e-04,-1.839359759917685031e-03,9.331198066730083882e-04,-2.134077624659646080e-02,-6.779603519858974810e-03,8.389135340047433331e+00,1.670527842069207691e+04,1.114888640727869188e+03,3.442009479843157897e+04
1.705999999999999961e+00,-7.009067558017179241e-04,-2.201297208226319062e-03,1.644448596658962215e-03,-5.117612569148707012e-03,-1.318918232728386909e-02,8.419135782026842207e+00,1.716777881468723717e+04,9.425543293077896578e+02,3.457467854482389521e+04
1.709999999999999964e+00,-1.158966385610346594e-03,-2.580786443071219315e-03,2.054709343853886819e-03,6.480499332878313090e-02,-1.007565836978349949e-01,8.309701167609112815e+00,1.691406907967459119e+04,1.150916150560762617e+03,3.429972668480408902e+04
1.713999999999999968e+00,-8.881195324725150129e-04,-2.903206060061753069e-03,3.621229516702554121e-03,-1.451912232600012786e-01,7.528947009958335268e-02,8.418957227037958901e+00,1.749635560779322623e+04,1.415144298239474210e+03,3.484297535328247614e+04
1.717999999999999972e+00,-1.568711137770878233e-03,-2.999151932524092047e-03,3.839409992219758837e-03,4.418093418099382219e-02,-1.175711370160214819e-01,8.547834030070603717e+00,1.730990958169623991e+04,9.672675666239657630e+02,3.475297887561545213e+04
1.721999999999999975e+00,-1.965841580204334086e-03,-3.858916251724341887e-03,3.281133622960354188e-03,-4.925244627372932227e-02,1.653691887599574931e-02,8.469685899374749027e+00,1.704622394834923398e+04,6.837948260082989691e+02,3.481757543072926637e+04
1.727999999999999980e+00,-3.841040088196131380e-03,-6.645983875183959430e-03,7.339758085529595605e-03,-8.078423548102219021e-02,-4.359799517704174981e-02,8.412981938002806359e+00,1.728315037801911603e+04,9.759907079945006672e+02,3.429154997560841730e+04
1.731999999999999984e+00,-2.977409902321656067e-03,-4.643803492322053084e-03,5.515266155650180684e-03,2.422263966072476515e-01,2.747012770072018023e-02,8.532836371396131270e+00,1.695343630396932349e+04,6.304207124979693617e+02,3.470931745353992301e+04
1.735999999999999988e+00,-2.986075811993495806e-03,-5.294048723266340031e-03,5.340842832246076900e-03,1.036870906211362076e-01,3.298671013556934289e-02,8.314863143726178407e+00,1.675825569127202471e+04,1.035717267398292734e+03,3.436438447764665034e+04
1.739999999999999991e+00,-3.265041065125730106e-03,-6.075017664627882508e-03,5.890743731427175271e-03,9.163688953255998138e-02,-1.238386629643165732e-01,8.532375599027741231e+00,1.679313809745378603e+04,1.025526004077915104e+03,3.446220698899204581e+04
1.743999999999999995e+00,-4.259457088563583030e-03,-6.458889221778632561e-03,6.728497072383516665e-03,1.965270520698711096e-02,-2.207355905800217621e-01,8.369339612445227061e+00,1.723035738695057080e+04,7.343752448331846381e+02,3.438019832549844432e+04
1.750000000000000000e+00,-6.151807200418318682e-03,-1.055556229288512511e-02,9.783530001291817699e-03,5.812906265332908051e-02,-1.828344425941664381e-02,8.457980738871185622e+00,1.661043968053395292e+04,5.562596954110463230e+02,3.487178617847755959e+04
1.754000000000000004e+00,-4.084338985160479961e-03,-6.703455165277565596e-03,7.042434490723335425e-03,-6.794840510277037893e-02,-1.081912302084695882e-01,8.391935007271126068e+00,1.747271734436698171e+04,9.938624941722089261e+02,3.436624720719896868e+04
1.754000000000000004e+00,1.309458493798555783e-06,-2.692472136021430980e-06,3.155565423434749348e-06,6.086943087807194716e-03,-2.777276330899351720e-02,8.501002068671478895e+00,1.701384775437233111e+04,1.144282437541194895e+03,3.442585664366461424e+04
1.758000000000000007e+00,-3.595950188238116168e-03,-5.940175694429398329e-03,5.899011376488254646e-03,-6.776430677442454864e-02,2.766285575636180660e-02,8.403642957378094636e+00,1.711795991568514728e+04,9.726433571096248443e+02,3.441498123796955042e+04
1.764000000000000012e+00,-4.415818593377036048e-03,-7.982212356651731400e-03,6.505731390128490985e-03,-1.268283638703234795e-01,-1.095563756459855959e-01,8.398935064804396333e+00,1.697194621281372383e+04,1.030550930253363731e+03,3.433584323664443946e+04
1.768000000000000016e+00,-2.933012617006792479e-03,-4.810432560300711112e-03,4.628944908518286064e-03,1.704450675643535418e-01,4.976299619690095766e-02,8.253017017945291300e+00,1.716101179320352094e+04,8.824820551015332057e+02,3.454824639271249907e+04
1.772000000000000020e+00,-2.662638388524977539e-03,-3.833160145431414260e-03,4.157527454898963387e-03,-2.570229363002604073e-01,6.258810411262862028e-02,8.389854724003793507e+00,1.734113921375957580e+04,9.402738868416254263e+02,3.470064756801260955e+04
1.774000000000000021e+00,-1.023341195794397933e-03,-2.367439453149489982e-03,1.452062936145332101e-03,1.001160788844220328e-01,-7.296983558581282558e-02,8.427345255269822033e+00,1.672965828390523166e+04,8.818242270923241222e+02,3.452863586000524083e+04
1.780000000000000027e+00,-3.639473656687001492e-03,-5.635190132045775346e-03,4.986694422930908026e-03,7.552362364545767148e-02,-3.670780647936906782e-02,8.362152157197439095e+00,1.744617065540853218e+04,5.940316311337187472e+02,3.450439792105125525e+04
1.784000000000000030e+00,-1.878151084929441080e-03,-2.812462176022908437e-03,2.110920826582047237e-03,6.678468076967638764e-03,4.638034120998284215e-02,8.396730744878865949e+00,1.735667453099485283e+04,8.199630301771790073e+02,3.448174629671623552e+04
1.790000000000000036e+00,-1.397672543979912091e-03,-3.030559149690050663e-03,3.001040501428929152e-03,8.645421938983111065e-02,-3.803333990298840561e-02,8.286376677682881109e+00,1.714039771947008558e+04,1.006331885071895044e+03,3.482417024833196774e+04
1.794000000000000039e+00,-1.149348265193755967e-03,-1.817636020196311498e-03,2.259153279947738457e-03,1.707447280389141064e-01,-5.005576716990195463e-02,8.350197022174217665e+00,1.716314450967954690e+04,1.226253505885224513e+03,3.445307515787885495e+04
1.798000000000000043e+00,-6.611465053205856568e-04,-1.499197229936617996e-03,1.364638663563176677e-03,-7.562403548850944388e-04,6.340533290806138478e-03,8.365460952823081442e+00,1.693431161752609114e+04,9.268087439484572769e+02,3.429904057279972039e+04
1.800000000000000044e+00,-2.863866917866988537e-04,-6.571498407284019280e-04,5.006283971462851829e-04,3.327778561257370427e-03,-2.650173541751396807e-03,8.412615599890832740e+00,1.717019833118460156e+04,8.958833273902189376e+02,3.439287155900012294e+04
1.806000000000000050e+00,-6.046883805677143132e-04,-6.571196923093381749e-04,8.845995969918056187e-04,-1.931664310662970230e-01,1.586234440367820520e-01,8.385565196166060886e+00,1.717320993308132165e+04,7.497521256252399553e+02,3.467066733811257291e+04
1.810000000000000053e+00,3.208009174534627610e-05,2.896818157659943808e-04,4.001946091499010774e-04,5.356434618235161871e-02,-1.150623799857311003e-01,8.358380080224973696e+00,1.698496590113321872e+04,1.193335288598800162e+03,3.444660457216120994e+04
1.816000000000000059e+00,1.339423707746405605e-06,-1.248613439968622820e-04,5.552517682132477488e-05,-5.165251921614268105e-02,1.240961435594461204e-01,8.348738126846511065e+00,1.719885724932117228e+04,1.004637552304653696e+03,3.466555464463606040e+04
1.820000000000000062e+00,1.149356100336996583e-04,1.849555454755017565e-04,3.172997739667457809e-04,6.846490336803680299e-02,-5.394839539065614253e-02,8.359923732760794479e+00,1.709828339515628250e+04,6.496101824388726982e+02,3.471659486509945418e+04
1.826000000000000068e+00,-1.601010597506783947e-04,-3.759452630004742020e-05,5.988154482076110864e-05,-1.581813970926512422e-02,1.084845626501189098e-01,8.239225767755048224e+00,1.706021768916798464e+04,1.122105059141353649e+03,3.465522926790839847e+04
1.830000000000000071e+00,-5.920302578662567849e-04,5.514594797275050283e-04,1.296484896917372224e-04,-1.057041895797409675e-01,-1.628852976233902961e-01,8.306606662964703958e+00,1.692806735757688148e+04,7.937016280903468441e+02,3.464854806544323219e+04
1.832000000000000073e+00,-7.795514509474485085e-04,1.238669939799771393e-04,3.085785659026200108e-04,-6.337751079072777294e-02,-1.349611955824560339e-01,8.336281140703446724e+00,1.701859943297756763e+04,1.150186660799474566e+03,3.448798629473461187e+04
1.838000000000000078e+00,-1.721920904431493071e-03,8.612806268396415747e-04,5.005133205864046014e-04,-1.644433091439052030e-01,-8.492603173381267634e-02,8.498744951834602546e+00,1.727404516650673395e+04,1.051068085284091239e+03,3.457785456599354802e+04
1.842000000000000082e+00,-1.695666310665481808e-03,7.958360023613240963e-04,6.357864012258703998e-04,3.861736348042044131e-02,1.625040590491822617e-02,8.313721737145684187e+00,1.700474285373454768e+04,1.014020656075707620e+03,3.475222830553314998e+04
1.846000000000000085e+00,-1.805125873444276630e-03,1.153586174215301971e-03,-3.181664238213864767e-05,-1.243139733491141624e-01,-9.521928511973072606e-02,8.394305728013430112e+00,1.706618742818937972e+04,1.071323183222174521e+03,3.453145778724887350e+04
1.850000000000000089e+00,-2.228181552525616924e-03,1.437218816895816922e-03,3.041547119098275860e-04,7.754601483679308960e-02,7.615164864786930221e-02,8.450892913245496629e+00,1.710043694678842076e+04,1.300663162949271509e+03,3.475413138116119080e+04
1.854000000000000092e+00,-2.202044139705043764e-03,1.541932949450767337e-03,2.299868276589744811e-04,-5.735435172347735922e-02,2.359072951851300722e-03,8.370948384149828669e+00,1.709151730656409927e+04,1.009663046709208970e+03,3.438754219076824666e+04
1.858000000000000096e+00,-2.904505303024909786e-03,2.004444820342775671e-03,2.954387594865950060e-04,-1.237801000958568126e-02,1.712764696549955168e-01,8.249962914533721658e+00,1.704262452576934447e+04,1.027531451149123086e+03,3.468675587679142336e+04
1.864000000000000101e+00,-5.539475005666935105e-03,3.029832293591410396e-03,1.198667402764776006e-03,-1.529209843547693626e-02,1.017755262064798105e-01,8.274829993072859935e+00,1.721985844900106895e+04,7.533993522427026619e+02,3.471132777834203443e+04
1.868000000000000105e+00,-4.064995507546860509e-03,1.786266119551988864e-03,6.009423989825387735e-04,-4.970567986493283630e-02,-4.455128686046404968e-02,8.379182922469846417e+00,1.705818524947512924e+04,7.763502354172360356e+02,3.478069969111448881e+04
1.872000000000000108e+00,-3.898907697439407075e-03,2.597822160022597235e-03,1.159494411108629190e-03,-1.297589985299315851e-01,4.973773245574808488e-02,8.453889069945642376e+00,1.735681283453224751e+04,1.016670707667800457e+03,3.465999532578745129e+04
1.875999999999999890e+00,-4.723541351768455882e-03,2.458172232284617110e-03,1.251163513704220669e-03,4.687882574753178544e-02,-7.350616787493548243e-02,8.405199847809189606e+00,1.722243550294441229e+04,1.234002533460882660e+03,3.466389470451777015e+04
1.881999999999999895e+00,-7.232316891906351644e-03,4.857950110164432032e-03,1.565534283297454659e-03,-7.151190204988276677e-02,-2.858701537512219060e-02,8.578781645069289752e+00,1.681817002986325679e+04,1.351182658905230710e+03,3.472928647350464598e+04
1.883999999999999897e+00,-2.712357928996149848e-03,1.677130809669443671e-03,6.752475425487963843e-04,1.200251793711246129e-02,-1.004746481682112086e-01,8.413079256817020735e+00,1.697554903070718865e+04,7.652558503325924448e+02,3.462137265345871128e+04
1.889999999999999902e+00,-8.938353038992371408e-03,5.010583995455334359e-03,1.705386946642108810e-03,-1.097252829565848325e-01,-1.017393769491891087e-01,8.310502004130951192e+00,1.701941322211002625e+04,1.025817782163393076e+03,3.466771129589331395e+04
1.895999999999999908e+00,-9.370112891010137085e-03,5.403141233329457511e-03,2.259768886411655554e-03,-3.369675389634427948e-02,7.732396450950090872e-02,8.446508400705207364e+00,1.696316097549828919e+04,7.457969881422052367e+02,3.459923188007259159e+04
1.899999999999999911e+00,-6.324950254844701088e-03,3.950247060129428826e-03,1.325933535872915328e-03,4.740408648193034785e-02,-9.386159816765130004e-02,8.352475678510264956e+00,1.696898757298661076e+04,9.879797094841378566e+02,3.426642943534207734e+04
1.903999999999999915e+00,-7.171533284892033476e-03,4.434578072083333010e-03,1.138515160088902954e-03,2.617668962393194382e-02,-5.458149148908667675e-02,8.374557887426627545e+00,1.702254955072091616e+04,1.096494135662007238e+03,3.464225867692445172e+04
1.907999999999999918e+00,-7.655887884108278883e-03,3.906586349277843713e-03,1.121071266052035397e-03,4.026790273559119337e-02,-3.136252160306955000e-02,8.416919252998022571e+00,1.691872694942638554e+04,7.325838466097507080e+02,3.452886681971501093e+04
1.911999999999999922e+00,-7.769232502437163970e-03,4.382069341715194057e-03,1.444202563076195161e-03,1.368118915914603440e-01,-1.676645144782839755e-02,8.496974932173809947e+00,1.717806903180685913e+04,1.034514425604634198e+03,3.442749854179089743e+04
1.915999999999999925e+00,-8.013668773949059188e-03,4.936218439580855252e-03,1.265607667133022193e-03,4.986519865091037368e-02,-1.258211523054038328e-01,8.305378119935173942e+00,1.712668819260295277e+04,1.244678460414686469e+03,3.456604555174590496e+04
1.921999999999999931e+00,-1.077090618973607083e-02,6.222940439559728615e-03,2.505403619305675983e-03,-6.732434500962281021e-02,-7.475348463836872792e-02,8.390352354364852161e+00,1.675386188913517617e+04,9.927550048093095256e+02,3.492073437684726377e+04
1.925999999999999934e+00,-6.678509324576325894e-03,3.552912010942143543e-03,1.378905232561690106e-03,5.417845848310346574e-02,1.022179993397770298e-01,8.423815130355011505e+00,1.681998156910413309e+04,9.583207652224878075e+02,3.448366106823821610e+04
1.929999999999999938e+00,-5.771014780125217555e-03,4.072186580596165104e-03,1.191574113794150250e-03,-3.500373475339557672e-02,-1.782485951311679195e-01,8.403862816272228642e+00,1.708589254258329311e+04,9.891364422473268405e+02,3.474716213397518732e+04
1.933999999999999941e+00,-6.320797321230710829e-03,3.736160222713294076e-03,1.243892957728456568e-03,4.462700585892571438e-03,1.176654426996435326e-02,8.574815403715122741e+00,1.708324268375589236e+04,1.196805507155681426e+03,3.450517625766477431e+04
1.937999999999999945e+00,-5.269476168193130798e-03,2.894375785287723116e-03,4.102156021938961096e-04,1.063857139541713459e-01,6.215615825914395237e-02,8.317140024986956703e+00,1.699906256787746315e+04,8.210935878553347038e+02,3.417802130008247332e+04
1.941999999999999948e+00,-5.531216452578051682e-03,2.850619278310243324e-03,6.589674997218885385e-04,-4.097561472715752218e-02,-1.192359548611150385e-02,8.332816391245430054e+00,1.711924576373460513e+04,1.344869613078630437e+03,3.461654760513852671e+04
1.947999999999999954e+00,-7.202374469951940313e-03,4.386483653751459266e-03,6.772395884995434205e-04,4.398659322458235710e-02,2.577237990452492522e-02,8.306539112118533907e+00,1.719780921900329122e+04,8.685879613974068434e+02,3.448153404629279248e+04
1.951999999999999957e+00,-4.710985250457706656e-03,2.855072561932525850e-03,4.191276764735410703e-04,1.023697980370814331e-01,4.233062736053522929e-03,8.252728158333635378e+00,1.725480142476987385e+04,1.334421716507250949e+03,3.481544786045498040e+04
1.955999999999999961e+00,-4.357449160793484648e-03,2.104304113956444091e-03,9.292921674673719663e-04,-2.520634969819419979e-03,1.911021914255203735e-02,8.479628858746012909e+00,1.721995551434884692e+04,9.535797595751215567e+02,3.456937443900253129e+04
1.959999999999999964e+00,-3.493547202523165831e-03,2.069456497390906573e-03,7.940433008738219780e-04,-2.661956782954902692e-02,6.490700170229901644e-02,8.413650395577461083e+00,1.691939955571989776e+04,6.673016464586456777e+02,3.431206690175409312e+04
1.963999999999999968e+00,-3.371450375397141552e-03,1.576584697878372510e-03,4.447312423584079411e-04,-1.087690166946416875e-01,-1.235808189791714751e-01,8.492206136280225692e+00,1.707392954067114260e+04,8.895274012072081860e+02,3.424618179559915006e+04
1.967999999999999972e+00,-2.769294918634801744e-03,1.550342185329849467e-03,5.450921521647912431e-04,1.020542285961687917e-01,2.228861466909785177e-02,8.523542726396703628e+00,1.705693392692747148e+04,8.840148021425294473e+02,3.430343293343412370e+04
1.973999999999999977e+00,-3.510949655634184284e-03,2.466277517771168180e-03,1.156510131942504798e-03,9.026670238275659452e-02,5.246361640009331029e-02,8.321402829783332677e+00,1.699247708393986250e+04,8.829650134661640095e+02,3.441076149465442722e+04
1.977999999999999980e+00,-1.674123603206278564e-03,1.537286314225335326e-03,4.665802276802631741e-04,1.468858206219012807e-01,4.003488108760688141e-02,8.365531666802075605e+00,1.724208681801772400e+04,5.779607009844166896e+02,3.414712218232246960e+04
1.983999999999999986e+00,-2.346038129427938362e-03,1.537143720683983123e-03,6.978486995099423109e-04,-5.469107964443012393e-02,1.648231276044670804e-02,8.257599652128979173e+00,1.706399908681128727e+04,9.626752770331564761e+02,3.460764046687297378e+04
1.985999999999999988e+00,-6.139013923769279625e-04,5.644759277935536192e-04,1.082192726183088701e-04,6.016886426681069405e-02,-8.518315554262877176e-02,8.429057542593726637e+00,1.695946213245704712e+04,7.672397458433053998e+02,3.452840549579221261e+04
1.989999999999999991e+00,-1.264047686256098736e-03,4.292524761162378280e-04,4.268903898700810438e-05,-4.240909961070216810e-02,-2.735111035513051320e-02,8.334369283076123125e+00,1.697816454027963482e+04,1.242681246573447424e+03,3.446739105883257434e+04
1.993999999999999995e+00,-9.455114569619008352e-04,4.422913165551771832e-04,1.256021177620490759e-04,-1.215865305732713626e-02,1.534916782160320459e-01,8.514250489032194835e+00,1.705292226538247269e+04,1.420605174518413151e+03,3.449236509852947347e+04
2.000000000000000000e+00,-8.190425436438498498e-04,1.938350386429010298e-04,-2.847023335524562302e-04,3.114361030496894805e-02,-7.328954347422990921e-03,8.468829528933351725e+00,1.717027564011644063e+04,1.068158138877600322e+03,3.467079433000487188e+04
2.004000000000000004e+00,1.540049873856979819e-04,-2.687767476587716751e-04,-1.235456567661511178e-04,9.627782421388696166e-02,-7.488724299450885691e-02,8.391430790417695462e+00,1.711894157459574126e+04,9.810258333769060073e+02,3.454920889087828982e+04
2.008000000000000007e+00,-7.285117625698071505e-05,-2.252813579937228280e-04,9.901084119776926704e-05,-1.516157707344910621e-01,8.911527409006715639e-02,8.571353465025215002e+00,1.695224928638482015e+04,1.006375058553891904e+03,3.492065745770139620e+04
2.012000000000000011e+00,-1.776682532528347667e-04,2.114159209046136958e-04,-4.897673296914361544e-04,8.109216708898511761e-03,-1.836651149326861687e-01,8.449068286029893571e+00,1.729639709844284152e+04,1.002222879549979211e+03,3.469474539236826968e+04
2.016000000000000014e+00,1.008585578436300357e-05,-2.297719394919841879e-04,3.040840917371405460e-04,-7.453327652494072530e-02,-6.091549628205161077e-02,8.450553533226937475e+00,1.689577275326357631e+04,8.934736134565392831e+02,3.471245629396758159e+04
2.021999999999999797e+00,-9.717930844228276537e-04,2.157803615962867105e-04,-4.897641295586233328e-04,2.276151445207625496e-02,-4.623158313016489246e-02,8.343380567422798322e+00,1.734965876193999429e+04,7.950599631670702365e+02,3.443672742579253827e+04
2.025999999999999801e+00,-1.451853823982891378e-03,-2.245517099718476683e-04,-1.065997887356696970e-03,1.195932872412629883e-02,-3.967598412320148121e-02,8.304780977307011369e+00,1.748341539016544994e+04,9.619727484263647739e+02,3.488112094455642364e+04
2.029999999999999805e+00,-8.976995704436108170e-04,1.986487257061450248e-04,-9.915551189744365064e-04,-2.654348708688156547e-02,2.319924668607226473e-02,8.382976966716951139e+00,1.710301920010052345e+04,9.907963698540315818e+02,3.447104299301504943e+04
2.033999999999999808e+00,-1.587152802466471188e-03,4.126481269875100768e-04,-1.292487239797028521e-03,-1.173345133137101981e-01,7.768813593716064614e-02,8.167930324181158497e+00,1.724467930988094304e+04,1.204799778262993414e+03,3.433054671260474424e+04
2.037999999999999812e+00,-1.718130400170722518e-03,-1.760830781360106566e-04,-1.772828821033789731e-03,-3.610856518204337562e-02,-5.751449292688373682e-02,8.410377878702625765e+00,1.699523099796055249e+04,1.119403447185896766e+03,3.450496491320137284e+04
2.041999999999999815e+00,-2.045449942055202475e-03,2.561803012202066047e-04,-2.204517913635789441e-03,4.853624408023336084e-02,8.912561791280733392e-02,8.338106564616925453e+00,1.696803768431970821e+04,1.137468585625760170e+03,3.474251164874782262e+04
2.048000000000000043e+00,-4.179230807818861207e-03,5.160912638258513589e-05,-2.924598846615732422e-03,5.062729528684325325e-02,1.080491979007166571e-02,8.254199797954372642e+00,1.697644572081467777e+04,9.835257530161195518e+02,3.429716905260129715e+04
2.053999999999999826e+00,-4.964746672396697265e-03,3.663273822743745947e-04,-3.666148504269500872e-03,1.609603254145093032e-01,-1.266339923565406311e-01,8.433162775390353971e+00,1.689049602275680445e+04,9.660994771111551245e+02,3.453605959525831713e+04
2.057999999999999829e+00,-3.620709395166600130e-03,1.563869609623494384e-04,-2.859073924896474682e-03,3.409748438595536224e-02,1.721956439969231367e-02,8.356399330764592293e+00,1.687670993685208305e+04,8.039529624285505633e+02,3.432486742160810536e+04
2.060000000000000053e+00,-2.350820678202768677e-03,7.717130719090588829e-05,-1.859927104742232834e-03,7.081840679835590957e-02,-1.370458960563828155e-01,8.392405264598567172e+00,1.715060886713423679e+04,5.626386380790602288e+02,3.433518146406494634e+04
2.065999999999999837e+00,-7.460601606388889487e-03,5.717863050581191908e-04,-3.945233359257150317e-03,-4.602677368902626659e-02,-6.313692129166925682e-02,8.433939307876137548e+00,1.670398262517796684e+04,1.021635632122937182e+03,3.418284306443746027e+04
2.069999999999999840e+00,-5.051936343517490421e-03,2.397717454711956837e-04,-3.282244520869389420e-03,9.180495415647871305e-02,-3.525400341395945603e-02,8.463494313685270498e+00,1.706891980175099161e+04,1.256275598185581657e+03,3.485251589949225308e+04
2.076000000000000068e+00,-7.404168548297428327e-03,6.127716725576364465e-04,-5.891215527492396110e-03,5.475667203506437430e-03,-8.164741457491175858e-02,8.376270375108354926e+00,1.671481643417319356e+04,9.973072551171779878e+02,3.433970891698251944e+04
2.080000000000000071e+00,-3.319476762084223008e-03,4.002826554191888796e-04,-1.929474138943673657e-03,-2.386563930731072300e-02,-6.529292998676698712e-02,8.433916660080454264e+00,1.683279576702753548e+04,9.176373897943345810e+02,3.476687491600256908e+04
2.084000000000000075e+00,-3.795056761247706575e-03,3.609370302871276544e-04,-1.802964115602833511e-03,2.097826418254099268e-02,-1.404971353545911017e-01,8.259238744238745156e+00,1.717809676411495093e+04,8.013324182520124168e+02,3.466611549053003546e+04
2.088000000000000078e+00,-3.275961377567396596e-03,5.057417093517991777e-04,-2.754043561996184254e-03,3.692055336876365335e-02,-7.549270117568425420e-02,8.423297970147819669e+00,1.663027944589381150e+04,7.937853330955265392e+02,3.437163540365939843e+04
