Attitude Estimation Problem
timestamp,gyr_x,gyr_y,gyr_z,acc_x,acc_y,acc_z,mag_x,mag_y,mag_z
0.016000,0.000006,-0.000012,-0.000002,-0.019885,0.060999,8.306048,16.881096,0.892822,34.883327
0.017000,-0.000174,-0.000042,0.000014,0.019518,0.043840,8.344887,17.219285,1.263120,34.728581
0.018000,-0.000147,-0.000036,0.000009,-0.005900,0.019506,8.334010,16.802870,0.798249,34.402057
0.019000,-0.000171,-0.000056,-0.000028,-0.001416,0.010626,8.365470,16.956494,0.850365,34.427912
0.020000,-0.000126,-0.000067,-0.000004,-0.011479,0.015412,8.321498,17.180452,1.007202,34.771174
0.021000,0.000135,0.000118,-0.000204,0.029742,-0.008242,8.349971,17.105572,0.850759,34.572486
0.022000,0.000140,0.000075,-0.000187,-0.013901,0.040784,8.312750,16.765888,0.535668,34.660098
0.023000,0.000161,0.000092,-0.000192,0.044643,0.037964,8.312103,17.253231,0.994962,34.460794
0.024000,0.000209,0.000072,-0.000217,-0.001595,0.037260,8.329964,16.798525,1.205889,34.631071
0.025000,0.000092,-0.000130,0.000245,0.013325,0.035425,8.298611,17.113145,0.980145,34.445714
0.026000,0.000113,-0.000166,0.000193,-0.002383,0.047687,8.312873,16.842573,1.029760,34.432427
0.027000,0.000133,-0.000125,0.000229,0.018046,0.036095,8.321990,16.975380,1.312028,34.526913
0.028000,0.000100,-0.000139,0.000218,0.028560,0.000408,8.312764,16.584487,0.877916,34.343237
0.029000,0.000720,0.000164,-0.000562,0.029331,0.072364,8.372476,17.030237,0.706684,34.619716
0.030000,0.000734,0.000143,-0.000562,0.005494,0.044701,8.342864,17.000014,0.889495,34.565001
0.031000,0.000733,0.000107,-0.000579,0.030188,0.041788,8.345056,17.042279,0.955225,34.492987
0.032000,0.000705,0.000127,-0.000577,0.013747,0.046010,8.307863,17.053128,1.047327,34.578173
0.033000,0.003938,0.000379,-0.000527,-0.002166,0.024972,8.302408,17.274127,0.876033,34.582059
0.034000,0.003853,0.000392,-0.000547,-0.028834,0.027003,8.321060,17.528268,0.973610,34.535766
0.035000,0.003917,0.000419,-0.000529,0.006584,0.046784,8.330174,16.813599,0.844239,34.515697
0.036000,0.003892,0.000388,-0.000527,-0.000718,0.017158,8.344066,17.159756,1.106852,34.599051
0.037000,0.003897,0.000366,-0.000582,0.002406,0.026896,8.322621,17.211883,0.789401,34.630388
0.038000,0.003874,0.000416,-0.000549,-0.010320,0.024976,8.315039,17.059526,1.006136,34.466396
0.039000,0.005589,0.000519,-0.001264,-0.001343,0.048946,8.334590,16.873327,0.748181,34.597982
0.040000,0.005589,0.000523,-0.001256,0.035635,0.060203,8.365831,17.152828,0.957539,34.533352
0.041000,0.005552,0.000522,-0.001281,0.015717,0.046768,8.316552,16.918141,1.079633,34.547889
0.042000,0.005535,0.000545,-0.001284,0.021093,0.022633,8.296730,16.986437,1.149785,34.660480
0.043000,0.003465,0.000380,-0.001273,0.035211,0.010703,8.335230,16.760966,0.992539,34.351606
0.044000,0.003483,0.000364,-0.001294,-0.013320,0.058639,8.351847,17.083726,0.375989,34.574200
0.045000,0.003460,0.000319,-0.001323,0.015098,0.061082,8.326529,17.194000,0.962007,34.311832
0.046000,0.003430,0.000338,-0.001273,0.049475,0.051025,8.308222,17.433724,1.206196,34.433913
0.047000,0.000799,-0.000074,0.000071,0.005829,0.032911,8.321331,17.006532,0.601863,34.627427
0.048000,0.000817,-0.000040,0.000008,-0.028989,0.043794,8.298438,16.793030,1.111927,34.733876
0.049000,0.000819,-0.000085,0.000025,-0.046497,0.029063,8.311139,17.043287,0.778502,34.776851
0.050000,0.000847,-0.000103,0.000045,-0.012946,-0.026565,8.309224,17.057243,1.001563,34.356753
0.051000,0.000831,-0.000076,-0.000006,0.000926,0.023226,8.334191,17.094020,0.944538,34.280275
0.052000,0.000827,-0.000074,0.000039,0.032510,0.046432,8.347077,17.314987,1.322563,34.732378
0.053000,-0.000933,-0.000140,0.000008,0.026794,0.015468,8.335235,17.224222,1.323682,34.334406
0.054000,-0.000961,-0.000178,0.000020,0.024497,0.027213,8.310438,16.852722,0.903756,34.593594
0.055000,-0.000548,0.000076,0.000386,0.015126,0.006123,8.304442,17.000465,0.787057,34.537302
0.056000,-0.000545,0.000024,0.000358,-0.009015,0.045079,8.330795,17.038656,1.145623,34.544794
0.057000,-0.000610,0.000045,0.000339,0.025246,0.017400,8.306711,16.689913,1.057773,34.840955
0.058000,-0.000569,0.000050,0.000338,0.014993,0.019880,8.314212,17.062409,1.173627,34.438901
0.059000,-0.000615,0.000063,0.000401,-0.033012,0.041844,8.357460,17.165830,0.840006,34.488728
0.060000,-0.000536,0.000134,0.000389,-0.016327,0.056576,8.325183,17.010861,1.075266,34.377441
0.061000,-0.000070,-0.000072,0.000218,-0.031170,0.017932,8.307094,16.774616,1.073993,34.619548
0.062000,-0.000067,-0.000027,0.000193,-0.001954,0.044433,8.363663,17.078506,1.163145,34.497179
0.063000,-0.000052,0.000014,0.000218,-0.024429,0.026198,8.308314,17.111040,0.915999,34.486395
0.064000,-0.000050,-0.000042,0.000172,-0.021139,0.037897,8.326411,17.122382,1.420083,34.679226
0.065000,0.000142,0.000015,0.000147,-0.032145,0.036340,8.302075,17.162529,1.132419,34.083905
0.066000,0.000158,0.000042,0.000083,0.004667,0.061574,8.335718,17.118328,1.158823,34.552484
0.067000,0.000122,-0.000011,0.000077,0.008008,0.025314,8.327729,17.048518,0.802333,34.452719
0.068000,0.000210,-0.000007,0.000121,0.015786,0.045337,8.324380,16.896258,1.175983,34.825524
0.069000,-0.000422,0.000342,0.000348,0.008809,0.009427,8.311573,17.429627,0.819646,34.407451
0.070000,-0.000402,0.000317,0.000321,0.018690,0.052950,8.328268,16.912381,0.787152,34.343108
0.071000,-0.000386,0.000308,0.000306,0.034243,0.046212,8.321680,16.957491,1.151836,34.397941
0.072000,-0.000433,0.000325,0.000380,-0.020178,0.064975,8.341914,17.259676,1.246794,34.591167
0.073000,-0.000393,0.000314,0.000346,0.040677,0.079654,8.300431,17.293582,0.721069,34.428709
0.074000,-0.000362,0.000325,0.000329,-0.021485,-0.021777,8.344899,17.093265,1.026312,34.811603
0.075000,-0.000360,0.000706,0.000985,0.017644,0.037926,8.301657,16.864316,0.879827,34.519893
0.076000,-0.000385,0.000665,0.000904,0.002606,0.039676,8.342164,16.956811,0.782377,34.444467
0.077000,-0.000482,0.000845,0.000774,0.009899,0.049332,8.323878,17.009398,1.262092,34.339738
0.078000,-0.000537,0.000837,0.000748,0.028211,0.048681,8.302447,17.213724,1.228266,34.437551
0.079000,-0.000548,0.000815,0.000768,0.032394,0.060650,8.335767,17.106717,1.094108,34.615502
0.080000,-0.000525,0.000790,0.000788,0.010035,0.069378,8.293446,17.072446,0.852338,34.663960
0.081000,-0.000487,0.000801,0.000796,0.029396,0.026326,8.348464,16.984453,0.988606,34.570220
0.082000,-0.000580,0.000799,0.000753,0.006788,0.010862,8.316369,17.221479,1.354484,34.394223
0.083000,-0.001500,0.001182,0.001299,0.024953,0.031673,8.313849,17.066657,0.697000,34.821792
0.084000,-0.001442,0.001172,0.001310,-0.008326,0.048850,8.361681,17.064936,0.925174,34.546467
0.085000,-0.001480,0.001200,0.001336,-0.038838,0.092361,8.330489,17.076246,0.841842,34.765296
0.086000,-0.001455,0.001243,0.001304,0.016021,0.027078,8.326310,17.180621,1.133837,34.405441
0.087000,-0.001232,0.001354,0.001201,0.008191,0.014710,8.310135,16.914931,0.960823,34.690589
0.088000,-0.001207,0.001334,0.001199,0.028184,0.004552,8.335274,17.152972,0.832811,34.665145
0.089000,-0.001204,0.001431,0.001246,-0.003184,0.016472,8.366143,16.868987,0.855109,34.566908
0.090000,-0.001233,0.001354,0.001156,-0.014971,0.013046,8.322611,16.830535,0.796882,34.835571
0.091000,-0.002088,0.001626,0.001520,-0.011235,0.035945,8.329514,17.319392,1.423542,34.623380
0.092000,-0.002091,0.001600,0.001430,0.008980,0.033301,8.312222,17.180336,0.952463,34.469089
0.093000,-0.002079,0.001590,0.001474,0.017209,0.033529,8.316387,17.224044,1.244613,34.688187
0.094000,-0.002104,0.001618,0.001442,0.034065,0.033318,8.348400,16.894215,1.057571,34.388289
0.095000,-0.002048,0.001566,0.001484,0.028947,0.061712,8.340318,16.993443,1.297256,34.305584
0.096000,-0.002037,0.001560,0.001599,0.004184,0.034439,8.321458,17.473723,1.087803,34.446919
0.097000,-0.002042,0.001500,0.001526,-0.039510,0.050208,8.331310,17.069002,0.849874,34.431379
0.098000,-0.001964,0.001484,0.001511,0.020818,0.033337,8.339787,17.069931,0.918372,34.357031
0.099000,-0.001991,0.001526,0.001508,-0.023617,0.012102,8.276450,17.013104,0.728377,34.291778
0.100000,-0.002012,0.001475,0.001512,0.001437,0.020085,8.308165,16.808715,1.303541,34.614974
0.101000,-0.002472,0.002098,0.003010,0.010877,0.027062,8.297484,17.170437,0.983583,34.634404
0.102000,-0.002452,0.002119,0.003033,0.055425,0.034875,8.304540,17.282107,1.059845,34.852923
0.103000,-0.002456,0.002092,0.003032,-0.009412,0.032109,8.322847,17.048340,1.096524,34.672573
0.104000,-0.002486,0.002098,0.003029,0.030334,0.033978,8.363790,16.875871,0.989237,34.182218
0.105000,-0.002759,0.002499,0.002922,-0.004663,0.044155,8.346988,17.030333,0.927082,34.471723
0.106000,-0.002838,0.002426,0.002946,0.028135,0.061986,8.320896,16.976763,1.079344,34.366407
0.107000,-0.002810,0.002468,0.002867,0.003905,-0.014487,8.322428,17.413530,1.089891,34.382416
0.108000,-0.002793,0.002469,0.002885,0.025999,0.053569,8.324637,17.179800,1.172080,34.608269
0.109000,-0.003875,0.003031,0.003341,0.038232,0.027710,8.311940,16.861235,1.411252,34.660410
0.110000,-0.003869,0.003020,0.003335,-0.005496,0.012787,8.338931,16.814555,1.020322,34.494821
0.111000,-0.003856,0.003064,0.003270,0.009736,0.047688,8.318025,17.056047,0.749868,34.547788
0.112000,-0.003866,0.003028,0.003347,0.002723,-0.008570,8.333967,16.894562,0.912314,34.612020
0.113000,-0.003666,0.003463,0.003217,0.005858,0.013134,8.324270,16.962764,0.923522,34.695462
0.114000,-0.003607,0.003468,0.003230,-0.001364,0.070870,8.304984,16.883279,0.854371,34.295799
0.115000,-0.003665,0.003507,0.003176,0.010489,0.013269,8.315132,16.895826,1.003989,34.660762
0.116000,-0.003669,0.003542,0.003221,0.009358,0.030971,8.326260,16.898925,1.096415,34.557899
0.117000,-0.003612,0.003538,0.003213,0.010456,0.025247,8.344209,16.787753,1.012381,34.767792
0.118000,-0.003609,0.003517,0.003227,-0.002442,0.033205,8.333666,16.689471,1.364884,34.420135
0.119000,-0.002687,0.002651,0.003577,0.008273,0.048140,8.332772,16.736205,1.005084,34.697917
0.120000,-0.002654,0.002618,0.003616,0.013131,0.028566,8.304830,16.999800,1.038293,34.946230
0.121000,-0.002492,0.002201,0.002199,-0.025132,0.001417,8.361925,17.093376,1.552733,34.781528
0.122000,-0.002437,0.002187,0.002136,-0.040981,0.059156,8.309829,17.063612,1.034182,34.476388
0.123000,-0.002489,0.002139,0.002165,0.027543,-0.009348,8.321640,17.101693,1.086080,34.460106
0.124000,-0.002447,0.002187,0.002160,0.032921,0.049425,8.319580,16.787679,1.232322,34.725554
0.125000,-0.002517,0.002173,0.002146,-0.035596,0.008355,8.354392,16.780455,1.010590,34.735918
0.126000,-0.002506,0.002180,0.002208,-0.003457,0.033553,8.332098,17.231356,0.843827,34.727296
0.127000,-0.002473,0.002106,0.002182,-0.022724,0.043193,8.317920,17.056230,1.052282,34.360979
0.128000,-0.002489,0.002181,0.002217,0.009451,0.023304,8.294660,16.233111,0.827521,34.641539
0.129000,-0.001944,0.001636,0.001630,-0.005103,0.047865,8.334327,17.013616,1.102449,34.751300
0.130000,-0.001930,0.001694,0.001621,0.004125,0.053038,8.322275,16.989462,0.894453,34.116913
0.131000,-0.001863,0.001640,0.001632,0.004622,0.025238,8.345670,16.754915,0.718855,34.645493
0.132000,-0.001856,0.001665,0.001620,0.009352,0.023666,8.296356,16.991277,0.873984,34.413298
0.133000,-0.002439,0.001775,0.002848,0.025740,0.019873,8.327834,16.902895,1.154685,34.556300
0.134000,-0.002453,0.001806,0.002880,0.050882,0.051018,8.358868,17.243897,0.554072,34.640983
0.135000,-0.001541,0.001706,0.001841,-0.007421,0.056438,8.326919,16.959649,0.922331,34.799009
0.136000,-0.001535,0.001688,0.001806,0.010796,0.075579,8.320762,16.977691,1.071242,34.342296
0.137000,-0.001492,0.001708,0.001836,0.003789,0.016605,8.344296,17.059698,0.669829,34.527398
0.138000,-0.001493,0.001728,0.001816,-0.007918,0.055427,8.293111,17.126936,1.189459,34.380898
0.139000,-0.001454,0.001701,0.001749,0.014436,0.021813,8.341111,16.950720,0.852133,34.489564
0.140000,-0.001475,0.001697,0.001807,0.003085,0.023985,8.318586,16.866869,0.560542,34.337646
0.141000,-0.000935,0.001182,0.000503,-0.013799,0.051665,8.305236,17.043097,0.947569,34.644921
0.142000,-0.001014,0.001204,0.000550,-0.002047,0.041725,8.358916,17.214743,0.889450,34.233072
0.143000,-0.000958,0.001234,0.000499,0.003141,0.029866,8.331898,17.130130,0.974126,34.488805
0.144000,-0.001035,0.001226,0.000524,-0.038492,0.010578,8.318812,17.287529,1.062774,34.562294
0.145000,-0.001157,0.001117,0.000857,-0.011068,0.002458,8.343677,17.083943,1.139620,34.405790
0.146000,-0.001147,0.001103,0.000868,0.008538,0.037556,8.312387,16.882754,0.930757,34.311720
0.147000,-0.001187,0.001092,0.000860,0.004892,0.045092,8.321039,17.043547,0.994489,34.525421
0.148000,-0.001146,0.001085,0.000868,0.012246,0.018657,8.328346,16.982631,1.294218,34.719919
0.149000,-0.000638,0.000779,0.000594,0.026313,0.059546,8.353151,17.033520,0.993647,34.803870
0.150000,-0.000686,0.000749,0.000534,0.009027,0.035336,8.317331,16.939590,0.789666,34.582436
0.151000,-0.000696,0.000766,0.000595,-0.033184,0.007574,8.322992,17.131924,1.069776,34.698213
0.152000,-0.000638,0.000788,0.000606,0.001072,0.063165,8.352893,16.911021,0.704286,34.426130
0.153000,-0.000596,0.000782,0.000615,-0.010593,0.051184,8.316761,17.164225,0.797992,34.166199
0.154000,-0.000628,0.000761,0.000562,0.017007,0.050931,8.351427,17.079898,0.866318,34.206044
0.155000,-0.000417,0.000143,-0.000122,-0.006692,0.055128,8.288617,17.066442,0.901142,34.861669
0.156000,-0.000355,0.000216,-0.000150,0.029377,0.034168,8.326306,17.069210,1.088462,34.535464
0.157000,-0.000367,0.000142,-0.000101,-0.037845,0.026832,8.353713,16.936970,0.881597,34.747040
0.158000,-0.000383,0.000120,-0.000091,-0.005367,0.049052,8.327078,17.196148,0.688735,34.298238
0.159000,-0.000115,-0.000135,0.000607,0.024667,0.038527,8.307591,16.822235,1.179749,34.205228
0.160000,-0.000117,-0.000111,0.000633,0.004378,0.066952,8.336415,17.203615,1.052247,34.567069
0.161000,-0.000092,-0.000114,0.000674,0.000893,0.080149,8.349755,16.960973,1.204482,34.560643
0.162000,-0.000110,-0.000162,0.000666,0.019711,0.041062,8.341106,16.773868,0.742105,34.221908
0.163000,0.000064,0.000062,-0.000469,0.018622,-0.009351,8.334344,17.283354,1.249877,34.748058
0.164000,0.000071,0.000042,-0.000428,-0.000001,0.024587,8.322440,17.024526,0.700697,34.335719
0.165000,0.000134,0.000034,-0.000480,-0.028131,-0.001723,8.351516,16.861588,0.966705,34.806080
0.166000,0.000108,0.000010,-0.000475,0.012561,-0.013990,8.314758,17.318642,0.881439,34.107895
0.167000,-0.000080,-0.000033,0.000306,0.020998,0.029020,8.351485,16.827274,1.204503,34.583405
0.168000,-0.000120,-0.000099,0.000296,0.024410,0.007308,8.323491,16.983587,0.893555,34.394124
0.169000,-0.000090,-0.000051,0.000379,-0.005792,0.006652,8.297056,16.820192,1.374692,34.869855
0.170000,-0.000047,-0.000069,0.000336,-0.013009,0.021741,8.332092,16.893771,0.637595,34.571340
0.171000,0.000185,-0.000158,-0.000086,0.024301,0.045024,8.341511,17.023704,1.096513,34.703420
0.172000,0.000214,-0.000161,-0.000064,-0.002130,0.046827,8.323389,16.826707,1.222148,34.470733
0.173000,0.000169,-0.000150,-0.000022,-0.005654,0.072923,8.279388,17.169243,0.925142,34.716492
0.174000,0.000206,-0.000112,-0.000093,-0.034525,0.042388,8.321038,16.597021,1.117768,34.378491
0.175000,0.000217,-0.000339,0.000241,-0.025724,0.013408,8.307741,17.066297,1.215326,34.384028
0.176000,0.000183,-0.000329,0.000221,0.021248,0.059122,8.359441,16.867204,0.903866,34.454934
0.177000,0.000222,-0.000312,0.000256,-0.028783,0.007110,8.297432,16.849848,0.996007,34.569219
0.178000,0.000196,-0.000330,0.000238,0.029250,0.043092,8.327998,17.141378,0.817641,34.356873
0.179000,0.000231,-0.000391,0.000237,0.007894,0.033535,8.303774,17.029345,0.928329,34.495225
0.180000,0.000153,-0.000379,0.000284,0.013615,0.030929,8.302177,16.915953,1.039126,34.357154
0.181000,0.001275,-0.003377,-0.001444,0.014875,0.026107,8.330968,17.028783,0.916585,34.532224
0.182000,0.001169,-0.003370,-0.001338,0.000803,0.052677,8.330820,17.280785,0.722430,34.077908
0.183000,0.001262,-0.003373,-0.001391,-0.014467,0.041207,8.333533,16.938076,0.753937,33.958179
0.184000,0.001209,-0.003368,-0.001400,0.013691,0.055612,8.313960,17.389111,1.083642,34.667025
0.185000,0.001685,-0.004665,-0.002907,0.016888,-0.000041,8.323961,16.997828,1.056991,34.456987
0.186000,0.001704,-0.004707,-0.002892,-0.002079,0.063947,8.323228,17.209869,1.012451,34.531293
0.187000,0.001733,-0.004715,-0.002941,0.015758,-0.000758,8.319288,17.060644,1.258462,34.570485
0.188000,0.001728,-0.004691,-0.002878,-0.013528,0.084698,8.312935,16.854943,1.041012,34.632383
0.189000,0.002494,-0.006553,-0.003476,0.005071,0.037354,8.294330,17.025649,0.966350,34.332638
0.190000,0.002513,-0.006553,-0.003490,-0.006958,0.042985,8.328109,17.072456,0.742557,34.489623
0.191000,0.002478,-0.006607,-0.003471,-0.042682,0.023411,8.346965,16.925029,1.166043,34.836427
0.192000,0.002456,-0.006575,-0.003497,0.015621,0.059426,8.306506,16.833742,0.975936,34.477913
0.193000,0.002794,-0.008128,-0.005088,0.029657,0.033993,8.358487,17.143954,0.995549,34.462935
0.194000,0.002719,-0.008085,-0.005059,0.003962,-0.006374,8.343505,17.072813,0.935836,34.843581
0.195000,0.002760,-0.008069,-0.005070,-0.004980,0.027348,8.297080,16.902125,1.026978,34.635468
0.196000,0.002770,-0.008091,-0.005046,0.036742,0.024450,8.358140,17.139775,0.920163,34.800750
0.197000,0.003300,-0.010627,-0.006726,-0.004575,0.016278,8.352988,16.653225,0.767028,34.664799
0.198000,0.003292,-0.010583,-0.006743,0.002732,0.033731,8.300538,16.886465,0.797200,34.446766
0.199000,0.003274,-0.010659,-0.006769,-0.004928,0.043685,8.300184,16.905025,1.100977,34.710828
0.200000,0.003246,-0.010660,-0.006743,-0.006481,0.026590,8.327721,17.073760,1.181647,34.269299
0.201000,0.004799,-0.012005,-0.007726,0.034325,0.029060,8.312457,17.071773,1.238455,34.724391
0.202000,0.004813,-0.011988,-0.007709,0.059970,0.026414,8.322536,17.334271,0.865385,34.712686
0.203000,0.004771,-0.011996,-0.007700,-0.002523,0.029608,8.327949,16.975748,1.094017,34.788323
0.204000,0.004752,-0.012013,-0.007698,0.023360,0.043375,8.348100,16.905394,0.622130,34.891509
0.205000,0.004766,-0.012006,-0.007743,0.025946,0.039475,8.333969,17.152824,0.959322,34.504143
0.206000,0.004828,-0.011980,-0.007709,0.027352,0.012903,8.376755,16.655348,1.020462,34.432929
0.207000,0.005314,-0.014592,-0.008942,-0.005219,0.028277,8.301944,17.069794,0.986420,33.884146
0.208000,0.005297,-0.014557,-0.008894,-0.018598,0.055040,8.372158,17.154573,1.017325,34.596919
0.209000,0.005359,-0.014555,-0.008937,-0.006077,0.042447,8.330820,17.025335,0.990679,34.567678
0.210000,0.005309,-0.014481,-0.008945,0.025653,0.080227,8.357050,17.114003,1.073214,34.588608
0.211000,0.006392,-0.015640,-0.010657,0.000803,0.046204,8.339045,17.418058,0.842120,34.461621
0.212000,0.006352,-0.015697,-0.010627,0.005342,0.013497,8.310274,17.388387,0.952607,34.713069
0.213000,0.006410,-0.015679,-0.010659,0.029031,0.060881,8.322195,17.088866,0.938905,34.723316
0.214000,0.006401,-0.015701,-0.010576,0.011275,0.059845,8.292015,17.163170,0.687659,34.566460
0.215000,0.006936,-0.017988,-0.011294,-0.002838,0.076450,8.332416,16.872198,1.228524,34.870561
0.216000,0.006975,-0.017959,-0.011358,-0.016457,0.038184,8.346977,17.425545,1.052939,34.443484
0.217000,0.006971,-0.017999,-0.011304,-0.044885,0.039433,8.318871,17.127112,0.803451,34.983968
0.218000,0.006917,-0.017958,-0.011334,-0.026494,0.037588,8.323629,17.295833,1.043597,34.723867
0.219000,0.006922,-0.017949,-0.011305,0.006281,0.028972,8.305786,16.971610,0.771906,34.105069
0.220000,0.006941,-0.017929,-0.011324,-0.022417,0.022126,8.343707,17.082955,0.945692,34.631196
0.221000,0.007116,-0.019325,-0.012518,0.011780,0.034718,8.305414,17.070128,1.077549,34.687075
0.222000,0.007128,-0.019346,-0.012511,-0.000297,0.051037,8.336559,16.786953,1.154110,34.452147
0.223000,0.008298,-0.021457,-0.014089,-0.002200,-0.016415,8.312772,17.168707,1.184174,34.728364
0.224000,0.008304,-0.021361,-0.014038,-0.002130,0.018020,8.318049,17.094601,1.022145,34.701561
0.225000,0.008208,-0.021439,-0.014035,0.024248,0.035629,8.346337,16.781236,0.804957,34.475554
0.226000,0.008256,-0.021462,-0.014011,-0.022452,0.030299,8.287281,16.814402,0.936461,34.466107
0.227000,0.008272,-0.021472,-0.014007,-0.000458,0.015435,8.352216,17.088681,0.978374,34.734622
0.228000,0.008314,-0.021427,-0.014038,0.016585,0.057052,8.317722,17.183019,0.976173,34.464026
0.229000,0.008469,-0.021978,-0.014910,-0.012053,0.015456,8.331732,17.064210,0.984651,35.013100
0.230000,0.008475,-0.022006,-0.014818,0.045194,0.045047,8.318823,16.793316,0.812498,34.320757
0.231000,0.008465,-0.021951,-0.014899,0.005072,0.036171,8.367245,17.126740,1.035744,34.416673
0.232000,0.008486,-0.021985,-0.014894,0.033938,0.042116,8.328592,17.248251,1.063259,34.707425
0.233000,0.008478,-0.021961,-0.014882,0.015284,0.046912,8.318048,17.308207,0.582030,34.658398
0.234000,0.008425,-0.021994,-0.014897,-0.007587,0.057830,8.326823,16.828561,1.041186,34.511881
0.235000,0.008621,-0.021825,-0.013289,0.028747,0.070282,8.336877,17.072020,0.761581,34.724073
0.236000,0.008588,-0.021812,-0.013257,0.017030,0.101692,8.330553,16.829960,1.138777,34.249299
0.237000,0.008564,-0.021804,-0.013235,-0.012007,0.031563,8.357667,17.075883,1.342333,34.979762
0.238000,0.008615,-0.021862,-0.013220,-0.015929,0.022134,8.348689,16.768208,0.859497,34.423704
0.239000,0.008625,-0.021754,-0.013344,0.004873,0.035156,8.348022,17.515255,0.982592,34.731057
0.240000,0.008629,-0.021824,-0.013334,-0.003921,0.007838,8.298373,17.139286,0.765245,34.165333
0.241000,0.008635,-0.021787,-0.013368,0.022448,0.042749,8.312413,16.964171,1.443165,34.572884
0.242000,0.008609,-0.021833,-0.013329,-0.012466,0.032140,8.348892,17.286159,0.724098,34.460216
0.243000,0.008186,-0.021814,-0.013596,-0.005770,0.024302,8.302372,17.233816,0.787624,34.510167
0.244000,0.008152,-0.021807,-0.013560,0.003858,0.044550,8.369029,16.915015,1.157574,34.598886
0.245000,0.007976,-0.021542,-0.013973,0.015839,0.036718,8.343778,17.216895,1.166690,34.477871
0.246000,0.007971,-0.021544,-0.013977,0.025667,0.026220,8.372797,17.279245,0.885750,34.641906
0.247000,0.008029,-0.021489,-0.013957,0.011318,0.042702,8.337495,16.706980,0.856113,34.967135
0.248000,0.008004,-0.021522,-0.013923,0.018964,0.068762,8.314482,17.205136,1.118198,34.361877
0.249000,0.008007,-0.021542,-0.013936,0.027967,0.041389,8.346193,16.877349,0.950003,34.507297
0.250000,0.008024,-0.021500,-0.013954,0.008017,0.031072,8.341138,17.457718,1.197754,34.540839
0.251000,0.007511,-0.020824,-0.012847,0.019745,0.021661,8.353510,17.102251,1.147987,34.265416
0.252000,0.007483,-0.020829,-0.012887,0.027472,0.036768,8.316935,16.720137,1.145623,34.533000
0.253000,0.006918,-0.017670,-0.011677,0.020192,0.051640,8.294233,16.838108,0.599251,34.691026
0.254000,0.006898,-0.017631,-0.011709,0.020574,0.051539,8.278941,16.991013,1.080392,34.467693
0.255000,0.006862,-0.017686,-0.011607,0.017103,0.052445,8.338089,17.085496,0.889616,34.503459
0.256000,0.006912,-0.017642,-0.011678,0.029476,0.031891,8.305407,17.203867,0.951033,34.453770
0.257000,0.006873,-0.017652,-0.011647,-0.022847,0.060579,8.340552,17.210335,1.134476,34.298437
0.258000,0.006925,-0.017668,-0.011641,0.037154,0.023991,8.342584,17.088319,0.904122,34.519915
0.259000,0.006914,-0.017644,-0.011626,-0.016560,0.021138,8.328915,17.370749,1.074623,34.933917
0.260000,0.006865,-0.017725,-0.011622,0.027262,0.072585,8.321534,17.137391,0.973833,34.512862
0.261000,0.005521,-0.015360,-0.009082,-0.003439,0.020282,8.312505,17.123084,1.068446,34.325277
0.262000,0.005490,-0.015307,-0.008983,0.058932,0.054083,8.348808,17.051207,0.867031,34.714481
0.263000,0.005502,-0.015343,-0.009057,0.009457,0.038834,8.340475,16.725656,1.037162,34.223365
0.264000,0.005492,-0.015339,-0.009060,0.004205,0.033040,8.312769,17.180441,0.930426,34.165565
0.265000,0.005636,-0.013606,-0.009234,0.005496,0.039948,8.309805,17.279157,0.522830,34.509289
0.266000,0.005554,-0.013633,-0.009246,0.020401,0.044746,8.322760,17.231255,1.273213,34.204897
0.267000,0.004791,-0.012581,-0.007790,-0.001945,0.041164,8.316193,16.999106,1.217048,34.736676
0.268000,0.004796,-0.012599,-0.007798,0.015786,0.061231,8.301109,17.345692,1.502078,34.416659
0.269000,0.004732,-0.012614,-0.007822,0.058779,0.037666,8.334678,17.171119,0.942239,34.133923
0.270000,0.004746,-0.012568,-0.007764,-0.000120,0.062200,8.323840,17.082466,0.624943,34.413879
0.271000,0.004818,-0.012604,-0.007776,0.007217,0.027604,8.320959,16.817384,1.094016,34.364011
0.272000,0.004781,-0.012607,-0.007842,0.023706,0.042733,8.325569,16.756731,1.176540,34.397462
0.273000,0.004544,-0.009948,-0.006474,0.001009,0.023777,8.317080,17.017752,0.821661,34.734980
0.274000,0.004530,-0.009953,-0.006390,0.024719,0.052679,8.342445,17.153454,0.892183,34.144678
0.275000,0.004558,-0.009948,-0.006430,0.015492,0.047097,8.322976,17.585363,1.391901,34.791276
0.276000,0.004533,-0.009955,-0.006466,-0.019527,0.035047,8.318804,16.966541,0.914319,34.590269
0.277000,0.003304,-0.009099,-0.005478,-0.005270,0.027988,8.329096,16.930113,0.820423,34.793920
0.278000,0.003324,-0.009068,-0.005492,-0.007094,0.025124,8.357585,17.092005,0.795494,34.696298
0.279000,0.003304,-0.009053,-0.005414,-0.016484,0.035791,8.302854,16.992371,0.630115,34.293973
0.280000,0.003334,-0.009076,-0.005468,0.000754,0.035525,8.306458,17.003739,1.054033,34.545529
0.281000,0.002446,-0.006343,-0.003897,0.027537,0.066778,8.343344,17.339998,0.966143,34.422621
0.282000,0.002504,-0.006324,-0.003914,0.036678,0.011733,8.321471,17.343542,1.200513,34.471096
0.283000,0.002437,-0.006361,-0.003905,0.025496,0.057142,8.361727,17.160153,0.920538,34.288211
0.284000,0.002464,-0.006369,-0.003902,0.037680,0.057673,8.379476,17.527418,0.907866,34.568830
0.285000,0.002457,-0.006371,-0.003897,0.018119,0.033788,8.329948,16.812383,1.154297,34.279570
0.286000,0.002459,-0.006350,-0.003898,-0.002220,0.041001,8.291551,17.427808,1.358849,34.620748
0.287000,0.001848,-0.004922,-0.003117,0.005595,0.037327,8.345520,17.126838,0.976579,34.502529
0.288000,0.001848,-0.004967,-0.003204,0.038718,0.020238,8.368233,17.183714,1.030094,34.700734
0.289000,0.001880,-0.004910,-0.003158,0.019347,0.044525,8.293752,16.928123,1.307317,34.430089
0.290000,0.001912,-0.004984,-0.003145,0.003893,0.060869,8.329795,16.961508,1.082901,34.593608
0.291000,0.001295,-0.002336,-0.002344,0.018590,0.044292,8.297270,16.770703,0.920435,34.092931
0.292000,0.001234,-0.002329,-0.002342,0.014487,0.068119,8.348284,16.975182,0.891324,34.568656
0.293000,0.001292,-0.002255,-0.002344,0.013930,0.071262,8.300982,16.953665,0.907127,34.762510
0.294000,0.001305,-0.002302,-0.002287,-0.003120,0.077321,8.338026,17.503195,0.835955,34.707633
0.295000,0.000704,-0.000992,-0.000624,0.010657,0.038633,8.310106,17.180263,0.678419,34.358825
0.296000,0.000790,-0.000971,-0.000653,0.022068,0.043735,8.326772,16.522254,1.075779,34.303781
0.297000,0.000730,-0.001003,-0.000644,-0.006886,0.045099,8.315694,17.131420,1.508786,34.818141
0.298000,0.000728,-0.000992,-0.000622,-0.003374,0.065309,8.370122,16.957884,0.819164,34.760296
0.299000,0.000308,-0.000708,-0.000384,0.055685,0.052878,8.321016,16.912096,1.204475,35.038263
0.300000,0.000256,-0.000702,-0.000421,0.015101,0.047950,8.317897,17.235826,1.241654,34.716932
0.301000,-0.000376,0.000532,0.000347,0.043108,-0.001280,8.320408,16.998356,1.069436,34.326916
0.302000,-0.000357,0.000553,0.000306,0.032664,0.022724,8.321529,17.354179,0.804455,34.646238
0.303000,-0.000350,0.000510,0.000339,0.028477,0.070378,8.300280,17.323682,0.918775,34.372293
0.304000,-0.000333,0.000498,0.000360,-0.011084,0.020685,8.295368,17.072939,0.841543,34.541337
0.305000,-0.000340,0.000471,0.000285,-0.013070,0.020145,8.351244,16.928954,0.850749,34.616580
0.306000,-0.000343,0.000518,0.000339,0.010201,0.040388,8.307105,17.224573,0.956893,34.194032
0.307000,0.000207,-0.000050,-0.000253,0.029269,0.077580,8.308473,17.331172,0.927065,34.908541
0.308000,0.000177,-0.000087,-0.000308,0.051273,0.047107,8.326711,17.080093,1.039623,34.428043
0.309000,0.000216,-0.000022,-0.000291,0.024563,0.047635,8.363818,17.152496,1.683258,34.443990
0.310000,0.000143,-0.000101,-0.000304,0.026986,0.050673,8.317872,17.351496,1.030949,34.737358
0.311000,0.000197,-0.000067,-0.000282,0.033416,0.020470,8.328569,16.733416,1.388194,34.576919
0.312000,0.000205,-0.000027,-0.000298,0.074636,-0.010729,8.331072,17.054023,1.187540,34.538943
0.313000,0.000145,-0.000199,-0.000037,0.021976,0.035168,8.322247,16.884470,0.546658,34.863015
0.314000,0.000176,-0.000209,0.000003,0.018344,0.034687,8.330847,17.062689,0.895439,34.408097
0.315000,0.000211,-0.000231,0.000066,0.006670,0.080550,8.321289,17.387769,0.919106,34.635347
0.316000,0.000162,-0.000249,0.000012,0.027990,0.026281,8.345187,17.041169,0.771788,34.684840
0.317000,-0.000003,0.000244,-0.000085,0.031292,0.048226,8.305656,17.318129,0.882662,34.503932
0.318000,0.000039,0.000245,-0.000068,0.001328,0.073773,8.310976,17.124309,1.099295,34.890992
0.319000,0.000055,0.000300,-0.000082,0.029421,0.020724,8.346704,17.043215,0.949957,34.477440
0.320000,0.000060,0.000213,-0.000104,0.002655,0.020351,8.312007,16.924078,0.681760,34.536990
0.321000,-0.000049,0.000089,0.001226,0.005328,0.047933,8.327770,17.207183,1.013995,34.499140
0.322000,-0.000029,0.000140,0.001237,-0.005589,0.039209,8.303313,16.932452,1.062127,34.543947
0.323000,-0.000009,0.000084,0.001245,0.029470,0.056446,8.325888,17.197087,1.075836,34.587095
0.324000,-0.000018,0.000104,0.001274,0.021970,0.075103,8.323193,17.359666,1.123693,34.603818
0.325000,0.000046,0.000262,0.003228,-0.002550,0.051451,8.303532,16.769885,1.216363,34.453846
0.326000,-0.000029,0.000250,0.003238,0.012242,0.027694,8.312219,17.120845,0.768114,34.913860
0.327000,0.000027,0.000259,0.003238,0.011444,0.057918,8.348666,16.628907,1.299985,34.593148
0.328000,0.000018,0.000288,0.003220,0.035161,0.046555,8.321174,16.738508,1.405560,34.610222
0.329000,-0.000104,0.000282,0.003578,-0.031062,0.047185,8.280410,16.651225,0.931781,34.614224
0.330000,-0.000083,0.000173,0.003615,-0.022303,0.036511,8.331706,17.435629,0.934259,34.001308
0.331000,-0.000083,0.000285,0.003629,0.007382,0.070733,8.335689,17.386647,1.109019,34.081141
0.332000,-0.000115,0.000309,0.003646,0.011446,0.067723,8.357931,17.171575,1.099390,34.448702
0.333000,-0.000316,0.000505,0.005751,0.026807,0.024133,8.315275,16.946160,0.895392,34.448588
0.334000,-0.000334,0.000507,0.005713,-0.012705,0.038907,8.305198,17.173869,1.164631,34.097486
0.335000,-0.000378,0.000501,0.005702,0.009828,0.045014,8.286371,17.154833,1.106643,34.543873
0.336000,-0.000380,0.000484,0.005763,-0.009024,0.029536,8.325312,17.027509,1.286061,34.770303
0.337000,-0.000374,0.000497,0.005737,0.006496,0.034298,8.312131,17.034943,0.996409,34.660005
0.338000,-0.000366,0.000524,0.005710,-0.012775,0.028967,8.322073,17.352591,0.855188,34.309757
0.339000,-0.000166,0.000778,0.007057,0.010186,0.042003,8.334818,17.158285,0.795713,34.136611
0.340000,-0.000177,0.000760,0.007079,0.030185,0.026972,8.294596,16.947398,1.092420,34.810652
0.341000,-0.000178,0.000756,0.007084,0.042073,0.047518,8.307121,16.968882,0.987984,34.541319
0.342000,-0.000124,0.000766,0.007025,0.022026,0.061280,8.361239,16.980455,0.871706,34.575902
0.343000,-0.000078,0.000655,0.007361,0.021474,0.061111,8.301981,16.874704,0.863822,34.472346
0.344000,-0.000062,0.000704,0.007419,0.015691,0.032988,8.333279,17.167506,0.719618,34.486185
0.345000,-0.000046,0.000660,0.007379,0.048898,0.044781,8.307463,16.856676,0.879594,34.663332
0.346000,-0.000060,0.000668,0.007374,-0.009072,0.072927,8.336732,17.091125,1.332836,34.497500
0.347000,-0.000320,0.001010,0.009013,0.025431,0.032807,8.331773,17.291820,1.164230,34.508880
0.348000,-0.000351,0.001026,0.009033,-0.003514,0.047542,8.302681,16.851833,0.990692,34.408803
0.349000,-0.000336,0.001026,0.009023,0.009135,0.026768,8.260689,16.995189,1.040798,34.232193
0.350000,-0.000324,0.001018,0.008999,0.009379,0.021604,8.322129,16.936900,0.815631,34.462501
0.351000,-0.000343,0.000848,0.010685,0.016399,0.075374,8.332516,16.957242,0.875086,34.537592
0.352000,-0.000411,0.000834,0.010731,0.023094,0.049716,8.343951,17.019350,1.011142,34.296563
0.353000,-0.000390,0.000851,0.010747,0.025510,0.045399,8.340713,16.945595,1.403196,34.377165
0.354000,-0.000372,0.000867,0.010744,-0.032589,0.081839,8.358427,16.699361,1.075734,34.375144
0.355000,-0.000102,0.001050,0.010537,0.020712,0.011222,8.350777,17.152129,0.992387,34.617495
0.356000,-0.000176,0.001105,0.010549,0.002333,0.050477,8.300503,17.085930,0.965804,34.732730
0.357000,-0.000087,0.001139,0.010553,0.061209,0.010630,8.327762,16.677758,0.753902,34.352636
0.358000,-0.000128,0.001123,0.010532,-0.026486,0.038879,8.317796,16.778932,0.916724,34.400244
0.359000,-0.000115,0.001137,0.010531,0.039227,0.031132,8.349331,17.292824,0.991889,34.470595
0.360000,-0.000093,0.001129,0.010523,-0.004363,0.034022,8.321090,17.031836,0.806037,34.683269
0.361000,-0.000396,0.001254,0.011566,0.026271,0.047132,8.340935,17.338113,0.774966,34.823787
0.362000,-0.000444,0.001208,0.011547,0.021648,0.053035,8.308267,16.975685,0.863307,34.602781
0.363000,-0.000409,0.001205,0.011574,0.024097,0.072125,8.292496,17.213204,0.994341,34.445002
0.364000,-0.000455,0.001225,0.011563,0.026107,0.053339,8.355835,17.330753,0.887775,34.498489
0.365000,-0.000104,0.001092,0.012333,0.030878,0.041714,8.335044,17.431184,0.750043,34.423395
0.366000,-0.000168,0.001139,0.012297,0.001407,0.031866,8.299438,17.302338,1.109146,34.684014
0.367000,-0.000160,0.001124,0.012334,0.046204,0.048765,8.307899,16.849952,1.069071,34.456849
0.368000,-0.000184,0.001160,0.012277,0.021681,0.063063,8.346391,17.542582,1.162921,34.507515
0.369000,-0.000691,0.001372,0.012273,-0.002507,-0.023512,8.334344,17.159832,1.017214,34.646509
0.370000,-0.000646,0.001400,0.012258,-0.001697,0.052222,8.345533,16.939745,1.269538,34.256647
0.371000,-0.000713,0.001398,0.012220,0.038630,0.074849,8.351302,17.144184,0.847483,34.520139
0.372000,-0.000708,0.001412,0.012297,0.051441,0.067469,8.355937,17.294993,0.676158,34.479262
0.373000,-0.000239,0.001466,0.012913,0.015327,0.013660,8.376425,16.827230,0.951995,34.234052
0.374000,-0.000310,0.001478,0.012888,0.017408,0.064431,8.315276,17.135739,0.923483,34.655901
0.375000,-0.000313,0.001485,0.012863,0.035563,-0.009648,8.318095,17.341222,1.007406,34.684157
0.376000,-0.000357,0.001445,0.012893,0.014130,0.048978,8.347988,17.370834,0.827474,34.788473
0.377000,-0.000751,0.001500,0.015279,-0.005961,0.052951,8.351107,17.097342,0.816345,34.569541
0.378000,-0.000724,0.001521,0.015262,0.063393,0.053885,8.317106,17.090533,0.733478,34.299943
0.379000,-0.000711,0.001560,0.015292,-0.009567,0.076514,8.341240,17.419825,1.057928,34.797570
0.380000,-0.000719,0.001550,0.015312,0.015621,0.006961,8.307595,17.024095,0.849532,34.187819
0.381000,-0.000730,0.001533,0.015294,0.028782,0.046751,8.287125,17.290801,1.082794,34.433630
0.382000,-0.000775,0.001536,0.015241,0.028795,0.007983,8.353674,16.951568,1.220493,34.478018
0.383000,-0.000486,0.001872,0.016347,0.020230,0.030261,8.346338,17.072149,0.887357,34.433704
0.384000,-0.000424,0.001831,0.016293,0.023137,0.066318,8.327995,17.210171,0.729917,34.527789
0.385000,-0.000469,0.001843,0.016326,0.018793,0.033845,8.331674,17.288239,0.986178,34.715369
0.386000,-0.000429,0.001836,0.016334,0.050217,0.029455,8.339437,17.362368,1.176291,34.408792
0.387000,-0.000948,0.001834,0.017009,-0.001790,-0.002089,8.330555,17.097222,1.068502,34.421829
0.388000,-0.000941,0.001820,0.017007,0.023418,0.037357,8.296207,17.007078,0.893038,35.002393
0.389000,-0.000927,0.001875,0.017007,0.022070,0.044938,8.308450,17.051733,1.207126,34.344897
0.390000,-0.000923,0.001772,0.016988,-0.011373,0.034471,8.339538,17.431772,0.927983,34.522630
0.391000,-0.000438,0.001860,0.018133,0.024305,0.021795,8.329133,16.750785,1.215710,34.769309
0.392000,-0.000434,0.001914,0.018097,0.033776,0.015906,8.327646,16.875089,1.226598,34.254851
0.393000,-0.000428,0.001877,0.018094,0.042886,0.013840,8.349672,17.225550,0.944460,34.769957
0.394000,-0.000383,0.001817,0.018037,0.048507,0.035063,8.319456,17.151742,1.179066,34.751013
0.395000,-0.000413,0.002230,0.019351,0.036671,0.035787,8.278923,17.047608,0.993699,34.298514
0.396000,-0.000385,0.002219,0.019355,0.013829,0.049022,8.341295,17.045819,1.370184,34.658234
0.397000,-0.000374,0.002235,0.019353,-0.001955,0.034092,8.346071,16.902316,1.312884,34.587609
0.398000,-0.000395,0.002215,0.019346,0.014574,0.008703,8.351328,17.263495,1.092734,34.593572
0.399000,-0.000880,0.002139,0.021700,0.011449,0.061525,8.298234,16.718586,1.211091,34.078429
0.400000,-0.000949,0.002099,0.021628,0.013309,0.049792,8.324615,17.299143,1.016608,34.673734
0.401000,-0.000892,0.002131,0.021619,-0.008123,-0.008623,8.357088,17.133872,1.198109,34.515925
0.402000,-0.000911,0.002115,0.021724,0.020715,0.063025,8.345098,17.157427,1.074602,34.874782
0.403000,-0.000833,0.002127,0.021647,0.027731,0.033010,8.336248,17.218900,0.742520,34.404233
0.404000,-0.000914,0.002085,0.021652,0.044565,0.041155,8.364719,17.218412,1.238515,34.373793
0.405000,-0.000266,0.002506,0.022162,-0.014577,0.007077,8.346296,17.534665,1.029260,34.593992
0.406000,-0.000262,0.002515,0.022213,-0.000872,0.080679,8.353339,16.861471,1.209942,34.427127
0.407000,-0.000229,0.002476,0.022227,0.047629,0.057308,8.307789,16.959314,0.933541,34.779453
0.408000,-0.000262,0.002529,0.022203,-0.017863,0.069623,8.296135,17.192678,0.822973,34.410914
0.409000,-0.000983,0.002205,0.022383,0.047536,0.052966,8.324835,17.374458,0.948304,34.621100
0.410000,-0.000931,0.002209,0.022412,0.024473,0.048837,8.322291,17.257960,0.334777,34.756764
0.411000,-0.000920,0.002204,0.022391,0.044289,0.067503,8.329511,16.938580,0.923541,34.809769
0.412000,-0.000898,0.002267,0.022336,0.003425,0.065772,8.285589,17.381496,1.087531,34.653586
0.413000,-0.000570,0.002819,0.024057,0.024451,0.054346,8.309670,17.291077,1.267681,34.813341
0.414000,-0.000580,0.002765,0.024097,0.035113,0.038896,8.315369,17.123346,0.849678,34.464186
0.415000,-0.000548,0.002759,0.024066,0.034877,0.017531,8.343899,17.127031,0.981074,34.318380
0.416000,-0.000562,0.002752,0.024145,-0.024541,0.045179,8.327257,17.186606,0.688823,34.529888
0.417000,-0.000829,0.002805,0.026213,0.004526,0.047267,8.324768,17.131188,1.012589,34.677477
0.418000,-0.000843,0.002766,0.026152,0.036653,0.050698,8.335501,17.240761,1.418121,34.413793
0.419000,-0.000875,0.002735,0.026163,0.021248,0.029875,8.320287,17.156063,1.030897,34.545983
0.420000,-0.000870,0.002820,0.026223,0.020345,0.035893,8.348785,16.858497,0.760948,34.514875
0.421000,-0.000708,0.002410,0.022520,0.017204,0.046963,8.298089,16.798515,0.924153,34.388918
0.422000,-0.000768,0.002414,0.022522,0.034319,0.027656,8.305349,17.044654,1.206278,34.305964
0.423000,-0.000760,0.002415,0.022516,0.048474,0.053436,8.346075,17.269573,0.877654,34.427683
0.424000,-0.000761,0.002368,0.022468,0.024425,0.037484,8.320735,17.191632,0.934488,34.341854
0.425000,-0.000908,0.002591,0.020685,0.030949,0.062190,8.324998,17.030538,0.644639,34.587276
0.426000,-0.000911,0.002599,0.020720,0.057009,0.035367,8.298264,16.504217,1.157614,34.632417
0.427000,-0.000871,0.002617,0.020676,-0.019517,0.005305,8.318029,17.410266,1.406535,34.694209
0.428000,-0.000870,0.002570,0.020734,0.010497,0.053094,8.325796,16.980799,1.404327,34.283953
0.429000,-0.001057,0.002789,0.023844,0.032158,0.040226,8.326646,16.735033,1.342200,34.629914
0.430000,-0.001065,0.002755,0.023920,0.003484,0.067997,8.295492,16.740141,0.723748,34.620277
0.431000,-0.001020,0.002776,0.023900,0.021182,0.035639,8.342137,16.933853,0.844523,34.892960
0.432000,-0.001081,0.002784,0.023912,0.014663,0.039467,8.320997,17.515247,1.012248,34.485171
0.433000,-0.001059,0.002846,0.023878,0.043154,0.039332,8.366090,17.275177,0.875331,34.084489
0.434000,-0.001028,0.002804,0.023913,0.020526,0.039713,8.323443,16.569216,0.968902,34.684161
0.435000,-0.000981,0.002355,0.018873,0.026395,0.027402,8.329312,17.104262,1.138768,34.689587
0.436000,-0.000992,0.002372,0.018894,0.015162,0.045816,8.333432,17.368148,1.018252,34.567492
0.437000,-0.000953,0.002397,0.018916,0.023084,0.041163,8.358010,17.093968,0.932227,34.211522
0.438000,-0.000976,0.002368,0.018861,0.023480,0.091789,8.327379,17.326786,0.907718,34.429453
0.439000,-0.001108,0.002274,0.016077,0.034276,0.024591,8.354619,16.996588,0.723105,34.497983
0.440000,-0.001095,0.002283,0.016069,0.000720,0.048414,8.321042,17.200364,0.845147,34.714403
0.441000,-0.001161,0.002236,0.016057,0.024017,0.034478,8.310459,17.029833,0.685436,34.779194
0.442000,-0.001100,0.002296,0.015997,0.009407,0.070287,8.335796,17.138983,1.146714,34.685441
0.443000,-0.000882,0.002346,0.018702,-0.011124,0.061282,8.308397,16.918415,0.879496,34.713883
0.444000,-0.000876,0.002282,0.018671,0.029835,0.050341,8.338801,17.454195,0.991888,34.393829
0.445000,-0.000936,0.002300,0.018705,0.052195,0.022470,8.338690,17.424682,0.858620,34.578078
0.446000,-0.000920,0.002275,0.018650,0.040207,0.026199,8.311336,17.018096,1.030831,34.332593
0.447000,-0.000752,0.002051,0.017543,0.009001,0.045713,8.297932,17.028278,0.857812,34.642359
0.448000,-0.000708,0.002073,0.017594,0.025893,0.010759,8.352453,17.131851,1.147913,34.355722
0.449000,-0.000792,0.002028,0.017635,0.025118,0.077729,8.339859,17.060196,1.098426,34.680278
0.450000,-0.000798,0.002045,0.017572,0.008596,0.023041,8.331191,16.821764,1.038907,34.358202
0.451000,-0.000950,0.001956,0.014777,0.014115,0.063055,8.307649,17.275433,1.335832,34.011712
0.452000,-0.000959,0.002025,0.014760,0.055459,0.064833,8.322270,16.973827,1.027924,34.514207
0.453000,-0.000964,0.001934,0.014797,0.050945,0.023329,8.330519,17.281176,0.992051,34.412924
0.454000,-0.000993,0.001961,0.014765,-0.011062,0.076346,8.293156,16.903522,0.747553,34.371920
0.455000,-0.001015,0.001978,0.014792,-0.014385,0.026304,8.353038,16.991173,1.050176,34.484855
0.456000,-0.000965,0.001931,0.014762,0.033898,0.041555,8.346920,16.974592,0.781505,34.379718
0.457000,-0.000748,0.001511,0.014527,0.012305,0.047605,8.359680,16.991288,0.831549,34.644789
0.458000,-0.000746,0.001572,0.014565,0.009646,0.023627,8.335859,17.363477,0.748827,34.730768
0.459000,-0.000715,0.001580,0.014572,0.029534,0.041301,8.346606,17.233433,1.009778,34.809284
0.460000,-0.000691,0.001563,0.014534,0.010536,0.041639,8.333927,17.067036,1.052277,34.539026
0.461000,-0.000515,0.001458,0.013701,0.020377,0.071593,8.333826,17.109312,1.063023,34.524158
0.462000,-0.000554,0.001508,0.013721,0.008443,0.049704,8.346717,17.189570,0.845295,34.392212
0.463000,-0.000550,0.001469,0.013709,0.030171,0.053547,8.296167,16.969816,0.903806,34.710478
0.464000,-0.000535,0.001458,0.013676,-0.035712,0.064763,8.335223,17.010654,1.099532,34.566427
0.465000,-0.000617,0.001691,0.013448,0.014099,0.053042,8.365237,17.014617,1.225801,34.657131
0.466000,-0.000640,0.001626,0.013422,0.043024,0.058439,8.308494,17.099961,0.957694,34.533400
0.467000,-0.000636,0.001630,0.013458,-0.000753,-0.009089,8.339148,16.804901,0.814139,34.604477
0.468000,-0.000674,0.001664,0.013420,0.036849,0.063024,8.339994,16.794574,0.828785,34.439772
0.469000,-0.000617,0.001610,0.013465,0.011374,0.027641,8.309731,17.658899,1.102366,34.726835
0.470000,-0.000593,0.001668,0.013390,0.011172,0.019297,8.361782,16.944334,1.042066,34.176346
0.471000,-0.000303,0.001390,0.013513,-0.011805,0.035037,8.287332,17.035723,1.069431,34.242372
0.472000,-0.000326,0.001388,0.013570,0.020425,0.038960,8.319180,17.175125,1.063542,34.399424
0.473000,-0.000322,0.001387,0.013594,-0.004375,0.039054,8.315396,16.938523,0.833784,34.448681
0.474000,-0.000294,0.001305,0.013548,0.011663,0.078472,8.329846,17.038292,1.069514,34.412590
0.475000,-0.000185,0.001308,0.012998,0.025157,0.029634,8.310557,17.407947,1.278366,34.561074
0.476000,-0.000148,0.001327,0.013005,0.013939,0.089488,8.320578,17.032860,0.868134,34.576616
0.477000,-0.000207,0.001337,0.013040,0.021679,0.022292,8.270816,17.193955,0.931919,34.439875
0.478000,-0.000196,0.001369,0.012948,-0.001547,0.086999,8.338380,17.167149,0.983715,34.405413
0.479000,-0.000703,0.001205,0.010965,0.047458,0.031976,8.278851,17.120940,0.853590,34.370844
0.480000,-0.000737,0.001152,0.011000,-0.007996,0.046986,8.331166,17.098175,0.859270,34.374459
0.481000,-0.000762,0.001182,0.010956,0.014141,0.028282,8.345323,17.300569,0.894208,34.870831
0.482000,-0.000766,0.001207,0.010976,0.004232,0.045174,8.330313,17.219803,0.811440,34.739151
0.483000,-0.000171,0.000989,0.011110,0.006903,0.021195,8.317758,16.960995,1.349533,34.559310
0.484000,-0.000200,0.001048,0.011056,0.052106,0.061395,8.346950,17.203563,0.975121,34.566973
0.485000,-0.000152,0.001022,0.011075,-0.001540,0.009972,8.348484,17.054873,0.790597,34.581205
0.486000,-0.000128,0.001012,0.011125,0.032554,0.041727,8.318903,17.296425,0.739378,34.812563
0.487000,-0.000037,0.001053,0.009121,-0.015217,0.056450,8.350292,17.214778,0.884430,34.428183
0.488000,-0.000025,0.001096,0.009133,0.000600,0.023581,8.351399,17.458081,1.149295,34.735453
0.489000,-0.000061,0.001080,0.009153,0.001342,0.074831,8.324175,17.050545,1.075308,34.583143
0.490000,-0.000012,0.001077,0.009120,0.006482,0.039867,8.318578,17.065240,0.989175,34.729708
0.491000,-0.000054,0.001036,0.009088,0.036977,0.056818,8.348315,17.407032,0.919515,34.262900
0.492000,-0.000022,0.001059,0.009118,0.017981,0.029754,8.326192,17.415483,1.286877,34.593022
0.493000,-0.000164,0.000740,0.008333,0.005670,0.068528,8.346585,17.444180,1.030778,34.340762
0.494000,-0.000103,0.000782,0.008263,0.012402,0.020272,8.357444,16.846012,0.712883,34.516788
0.495000,-0.000046,0.000771,0.008308,0.016998,0.036328,8.357622,17.008960,0.855847,34.495326
0.496000,-0.000022,0.000816,0.008291,0.003953,0.032521,8.321721,17.264061,0.861836,34.378110
0.497000,-0.000264,0.000914,0.007731,-0.012319,0.045316,8.311002,17.006076,1.144500,34.502461
0.498000,-0.000249,0.000913,0.007761,0.002713,0.024742,8.314537,17.152648,1.266135,35.063739
0.499000,-0.000246,0.000984,0.007722,-0.002702,0.043929,8.323237,17.222074,1.071089,34.287774
0.500000,-0.000194,0.000929,0.007743,0.015174,0.086404,8.323238,17.169674,0.978595,34.687893
0.501000,0.000050,0.000590,0.005801,0.026400,0.053435,8.325107,17.023172,1.005222,34.632607
0.502000,0.000097,0.000611,0.005753,0.019718,0.039360,8.330459,17.464415,1.267724,34.759931
0.503000,0.000031,0.000573,0.005740,0.002366,0.028977,8.326716,17.238720,0.883257,34.655997
0.504000,0.000074,0.000642,0.005788,-0.025574,0.069110,8.369947,16.949840,0.926527,34.858648
0.505000,-0.000050,0.000601,0.004406,0.017618,0.052361,8.348173,17.202252,1.009914,34.584574
0.506000,0.000069,0.000567,0.004400,-0.012533,0.057660,8.317776,17.080515,0.550771,34.272462
0.507000,0.000056,0.000617,0.004427,0.060364,0.035146,8.344687,17.217491,0.788676,34.495336
0.508000,0.000014,0.000613,0.004436,0.010571,0.083236,8.316043,16.862087,0.827496,34.515252
0.509000,0.000074,0.000459,0.003084,0.037659,0.051578,8.334527,17.276539,1.182504,34.374547
0.510000,0.000103,0.000442,0.003105,0.018780,0.025492,8.274229,17.157629,0.691226,34.526954
0.511000,0.000092,0.000418,0.003090,0.035823,0.029086,8.349959,17.282193,0.952874,34.769568
0.512000,0.000083,0.000404,0.003125,0.021248,0.063145,8.342544,17.259758,1.012232,34.467992
0.513000,0.000059,0.000453,0.003084,-0.035546,0.051342,8.319445,16.995568,0.684801,34.266586
0.514000,0.000074,0.000417,0.003151,0.037641,0.050865,8.338533,17.290180,1.257257,34.307844
0.515000,-0.000470,-0.000228,0.001891,0.008662,0.020538,8.317646,17.111647,0.662253,34.327925
0.516000,-0.000537,-0.000221,0.001933,-0.022140,0.027031,8.296851,17.148580,0.865604,34.146938
0.517000,0.000114,0.000060,0.000113,-0.014837,0.041285,8.337143,17.429671,0.956066,34.303334
0.518000,0.000133,0.000006,0.000053,0.013513,0.028879,8.307271,17.123188,0.949955,34.597371
0.519000,0.000113,0.000038,0.000133,0.007758,0.022358,8.325108,17.033046,1.026079,34.697901
0.520000,0.000101,0.000004,0.000062,-0.016527,0.053080,8.314941,16.844565,0.831976,34.677793
0.521000,0.000036,0.000052,0.000092,0.021740,0.056829,8.332986,16.992293,0.949801,34.425480
0.522000,0.000097,0.000090,0.000127,0.030267,-0.002733,8.316436,17.019913,0.870569,34.273611
0.523000,-0.000010,-0.000230,-0.001015,0.036398,0.049207,8.363647,17.186995,1.170211,34.482099
0.524000,0.000011,-0.000167,-0.001003,0.048525,0.044980,8.321294,17.281454,0.870957,34.410114
0.525000,-0.000035,-0.000119,-0.001053,-0.005167,0.029344,8.318143,17.177664,1.047919,34.494370
0.526000,0.000016,-0.000215,-0.001053,0.002198,0.020421,8.334472,17.228897,0.717655,34.457527
0.527000,0.000041,-0.000174,-0.001003,0.048374,0.057756,8.319873,17.284432,1.150973,34.677151
0.528000,0.000005,-0.000170,-0.000988,0.034612,0.045927,8.325554,17.295213,0.893857,34.187565
0.529000,0.000219,0.000049,-0.000934,0.012085,0.034908,8.339503,17.048702,1.088179,34.670099
0.530000,0.000241,0.000102,-0.000956,0.016980,0.024253,8.310710,16.997167,0.779179,34.348760
0.531000,0.000015,-0.000092,-0.000241,0.020333,0.047584,8.320060,16.993819,0.600180,34.414523
0.532000,-0.000005,-0.000097,-0.000251,-0.008660,0.064165,8.347317,17.107788,0.946821,34.452450
0.533000,0.000053,-0.000058,-0.000233,-0.025907,0.065952,8.322161,16.965779,0.855327,34.409129
0.534000,0.000020,-0.000076,-0.000252,0.017999,0.061892,8.359697,17.234488,0.965506,35.126186
0.535000,-0.000045,0.000201,0.000248,0.034388,0.043800,8.298636,17.034540,1.050037,34.456348
0.536000,-0.000047,0.000230,0.000288,-0.026693,0.056647,8.353436,17.034149,1.266672,34.708265
0.537000,-0.000058,0.000227,0.000263,-0.002263,0.033499,8.315138,16.760503,0.768669,34.489837
0.538000,-0.000007,0.000225,0.000231,0.002388,0.060615,8.330778,16.998924,0.675069,34.538398
0.539000,-0.000090,0.000026,0.000115,0.009541,0.092525,8.297451,16.736717,0.990072,34.656722
0.540000,-0.000115,0.000034,0.000119,0.025210,0.017786,8.323200,17.266688,0.937845,34.807155
0.541000,-0.000059,0.000036,0.000067,0.017159,0.055967,8.321108,17.162440,1.128596,34.374241
0.542000,-0.000056,-0.000022,0.000023,0.006763,0.033309,8.304598,17.391703,0.965068,34.819861
0.543000,-0.000029,-0.000004,0.000073,0.026913,0.044608,8.335149,17.360208,1.015268,34.594244
0.544000,-0.000092,-0.000014,0.000079,0.012760,0.035045,8.350080,17.063887,0.807807,34.630755
0.545000,-0.000175,0.000517,-0.000066,0.034762,0.067461,8.333888,17.203350,0.653775,34.500146
0.546000,-0.000148,0.000512,-0.000034,0.041430,0.030541,8.322325,17.265749,1.247999,34.655839
0.547000,-0.000185,0.000502,-0.000045,0.038249,0.055937,8.320518,16.806194,0.762465,34.449452
0.548000,-0.000121,0.000461,-0.000084,-0.006950,0.034816,8.312565,17.367978,0.848647,34.720064
0.549000,-0.000377,0.000522,-0.000278,0.048916,0.054250,8.310930,16.978421,1.068205,34.335025
0.550000,-0.000422,0.000501,-0.000276,-0.006933,0.023227,8.315106,17.061116,0.747570,34.794158
0.551000,-0.000425,0.000511,-0.000281,0.010774,0.061391,8.306885,16.964571,0.667504,34.202825
0.552000,-0.000436,0.000528,-0.000204,0.060298,0.019892,8.297962,17.081962,0.877310,34.641134
0.553000,-0.000239,0.000302,0.000290,0.048172,0.065553,8.322698,17.053117,1.190176,34.441905
0.554000,-0.000176,0.000295,0.000329,0.021816,0.047108,8.329131,17.296163,0.782017,34.226536
0.555000,-0.000162,0.000299,0.000339,-0.012018,-0.011139,8.309341,16.939775,0.748060,34.277152
0.556000,-0.000260,0.000335,0.000320,0.050744,0.076319,8.321095,17.178080,0.914583,34.543485
0.557000,-0.000777,0.000538,-0.000150,-0.005199,0.044507,8.335226,17.200005,0.640719,34.625982
0.558000,-0.000805,0.000571,-0.000120,0.026227,-0.012064,8.390048,16.866161,0.854323,34.151662
0.559000,-0.000781,0.000522,-0.000099,0.036945,0.034895,8.311887,17.224441,0.640016,34.284993
0.560000,-0.000807,0.000564,-0.000168,0.034013,0.048867,8.328233,16.881079,0.940590,34.485527
0.561000,-0.000501,0.000309,-0.000843,0.023344,0.036600,8.334478,17.254719,0.945246,34.702279
0.562000,-0.000556,0.000374,-0.000862,0.028746,0.045791,8.332241,17.171368,0.783236,34.387684
0.563000,-0.000486,0.000368,-0.000877,0.042182,0.006660,8.310286,17.389300,1.201855,34.674993
0.564000,-0.000531,0.000405,-0.000845,0.014629,0.024142,8.318389,17.282345,1.054988,34.580796
0.565000,-0.000763,0.000618,-0.001064,0.040055,0.035849,8.289490,17.107821,1.292663,34.426728
0.566000,-0.000741,0.000581,-0.001001,0.005547,0.040019,8.327175,17.144517,0.636251,34.240621
0.567000,-0.000749,0.000694,-0.001053,0.025291,0.048406,8.323575,17.447902,1.084176,34.475291
0.568000,-0.000758,0.000681,-0.000992,-0.009983,0.029939,8.313817,17.113269,0.703690,34.433799
0.569000,-0.000775,0.000636,-0.001024,0.008320,0.052764,8.334523,16.817239,0.908438,34.647358
0.570000,-0.000750,0.000610,-0.001026,0.030679,0.031076,8.356790,17.185468,1.271474,34.573083
0.571000,-0.001050,0.000602,-0.001854,0.027626,0.041075,8.338541,16.620621,1.341124,34.354347
0.572000,-0.001012,0.000556,-0.001840,0.000428,-0.003718,8.314141,17.129325,0.984930,34.562733
0.573000,-0.000995,0.000581,-0.001874,0.029121,0.040413,8.323616,17.107332,0.977961,34.261711
0.574000,-0.001046,0.000573,-0.001881,-0.003051,-0.000651,8.355106,17.596450,1.090808,34.526338
0.575000,-0.000972,0.000583,-0.001846,0.009848,0.030117,8.312831,17.452878,0.758788,34.683654
0.576000,-0.001016,0.000609,-0.001866,0.039332,0.056541,8.306871,16.991054,1.042808,34.598138
0.577000,-0.001734,0.000756,-0.003359,0.037511,0.035829,8.314064,16.647844,0.689473,34.822016
0.578000,-0.001793,0.000754,-0.003353,0.008102,0.022945,8.299740,17.049372,1.350903,34.768796
0.579000,-0.000863,0.000777,-0.002397,0.029667,0.034282,8.338820,17.055488,0.905860,34.833984
0.580000,-0.000919,0.000794,-0.002490,0.019802,0.049786,8.285119,17.503056,0.910092,34.812757
0.581000,-0.000884,0.000792,-0.002520,-0.003474,0.050198,8.300669,17.296308,1.196996,34.535920
0.582000,-0.000863,0.000836,-0.002471,0.021520,0.010667,8.326706,16.968295,0.762197,34.265173
0.583000,-0.001284,0.000792,-0.003825,0.046456,0.054318,8.289056,17.465956,0.967456,34.295913
0.584000,-0.001309,0.000702,-0.003807,0.031092,0.075432,8.382775,17.290906,0.873110,34.391061
0.585000,-0.001298,0.000736,-0.003820,0.023559,0.011164,8.335140,17.496168,0.709019,34.561772
0.586000,-0.001309,0.000747,-0.003806,0.046156,0.034893,8.347408,16.983881,0.820817,34.234482
0.587000,-0.001332,0.000791,-0.003860,-0.002963,0.046163,8.276174,17.109175,0.797063,34.630449
0.588000,-0.001314,0.000816,-0.003792,-0.005202,0.038521,8.319048,17.088611,0.905215,34.349200
0.589000,-0.001116,0.001060,-0.003935,-0.012274,0.028559,8.333022,17.373261,1.107205,34.385284
0.590000,-0.001116,0.001090,-0.003922,0.012205,0.039854,8.341135,16.835728,0.601766,34.735686
0.591000,-0.001118,0.001085,-0.003958,0.007015,0.066022,8.306427,17.272705,1.167154,34.493413
0.592000,-0.001128,0.001114,-0.003956,0.052802,0.061050,8.319197,17.252790,1.163448,34.503160
0.593000,-0.001562,0.000941,-0.003582,0.008084,0.042761,8.338447,17.028473,0.777473,34.598724
0.594000,-0.001565,0.001001,-0.003570,0.035981,0.011548,8.335196,17.205173,0.887244,34.461013
0.595000,-0.001589,0.000980,-0.003605,-0.028776,0.034991,8.355692,17.055538,1.118009,34.251886
0.596000,-0.001570,0.000971,-0.003598,-0.014691,0.006306,8.330827,16.884432,0.756403,34.488060
0.597000,-0.001251,0.001317,-0.004404,0.041860,0.045104,8.287970,17.158057,0.759682,34.691824
0.598000,-0.001293,0.001324,-0.004357,-0.020066,0.040503,8.302596,17.379056,1.045358,34.733035
0.599000,-0.001258,0.001385,-0.004326,0.016618,0.042473,8.316499,16.920905,0.793941,34.615891
0.600000,-0.001306,0.001339,-0.004420,0.050444,0.050416,8.350806,17.089771,0.793612,34.791313
0.601000,-0.001299,0.001320,-0.004416,0.032403,0.035473,8.322454,17.154684,1.101004,34.386894
0.602000,-0.001308,0.001337,-0.004422,0.007828,0.052222,8.313261,17.420716,0.935715,34.713144
0.603000,-0.001590,0.001386,-0.004759,0.048601,0.023435,8.330700,16.984734,0.998272,34.624312
0.604000,-0.001624,0.001411,-0.004869,0.009187,0.029371,8.370179,17.481395,0.881091,34.555891
0.605000,-0.001566,0.001437,-0.004829,0.004941,0.032303,8.312983,17.210940,0.693255,34.097992
0.606000,-0.001649,0.001413,-0.004867,0.014610,0.036391,8.303806,16.905009,1.152191,34.847593
0.607000,-0.001812,0.000892,-0.004463,0.005219,0.050712,8.347084,16.919012,0.731460,34.812611
0.608000,-0.001916,0.000843,-0.004448,0.014253,0.039592,8.319096,16.987865,0.894253,34.798059
0.609000,-0.001818,0.000901,-0.004508,0.003630,0.019844,8.294987,17.346196,1.145845,34.187239
0.610000,-0.001842,0.000898,-0.004514,-0.000410,0.056601,8.317817,16.854283,1.181775,34.578224
0.611000,-0.002515,0.001267,-0.004832,0.006767,0.030980,8.351474,16.946850,0.899516,34.731042
0.612000,-0.002567,0.001252,-0.004831,-0.004986,0.043915,8.324995,17.390941,0.964740,34.384688
0.613000,-0.002517,0.001245,-0.004836,0.015094,0.043235,8.327528,17.043516,1.224635,34.772037
0.614000,-0.002513,0.001275,-0.004833,0.029704,0.037696,8.361549,17.133969,0.863870,34.725675
0.615000,-0.002373,0.000953,-0.005465,0.014603,0.003917,8.339246,17.409178,0.685862,34.472312
0.616000,-0.002349,0.000950,-0.005415,0.021605,0.038903,8.321141,17.319174,0.980092,34.422980
0.617000,-0.002335,0.000898,-0.005469,-0.028949,-0.001030,8.359596,17.132113,1.037327,34.300035
0.618000,-0.002355,0.000950,-0.005409,0.001877,0.057677,8.294051,17.113891,1.036687,34.422581
0.619000,-0.002373,0.000971,-0.005387,-0.007434,0.051871,8.324309,16.946189,0.862300,34.330111
0.620000,-0.002348,0.000946,-0.005468,0.024510,0.037892,8.322188,17.260203,0.776433,34.553601
0.621000,-0.002357,0.001058,-0.004412,-0.000053,0.014070,8.354660,17.024196,0.829878,34.781394
0.622000,-0.002399,0.001043,-0.004407,0.045255,0.017182,8.304112,17.071054,0.836957,34.369814
0.623000,-0.002232,0.001415,-0.005005,0.006627,0.044972,8.322709,17.161520,1.125174,34.762063
0.624000,-0.002256,0.001441,-0.005031,0.023701,0.037095,8.324064,17.063845,0.922058,34.542500
0.625000,-0.002264,0.001455,-0.004998,0.062274,0.027478,8.359444,17.128290,0.817196,34.799039
0.626000,-0.002269,0.001435,-0.004960,0.042780,0.048214,8.287536,17.100320,1.068964,34.599096
0.627000,-0.002300,0.001428,-0.004999,0.014219,0.027652,8.326781,17.173807,0.772503,34.516115
0.628000,-0.002250,0.001403,-0.005034,-0.007852,0.053260,8.346237,17.535333,1.271731,34.547623
0.629000,-0.002328,0.001444,-0.005031,0.037163,0.030285,8.305013,17.025203,0.538690,34.421585
0.630000,-0.002283,0.001460,-0.005019,0.020650,0.073382,8.327775,17.080721,0.904831,34.469709
0.631000,-0.002533,0.001689,-0.005781,0.022665,0.033214,8.316223,17.215681,0.773250,34.569985
0.632000,-0.002523,0.001679,-0.005803,0.026804,0.035791,8.334512,17.074462,0.796003,34.840014
0.633000,-0.002506,0.001709,-0.005837,0.023750,0.044916,8.337624,17.239712,0.814489,34.617169
0.634000,-0.002519,0.001668,-0.005761,-0.003697,0.019456,8.325516,16.827891,0.838180,34.773313
0.635000,-0.003214,0.001353,-0.004312,0.013118,0.027327,8.331235,17.163252,1.018212,34.707719
0.636000,-0.003248,0.001363,-0.004325,0.031795,0.061777,8.354853,17.213248,0.914668,34.698003
0.637000,-0.002669,0.002094,-0.006482,-0.013048,0.014358,8.320535,16.770019,0.837347,34.498958
0.638000,-0.002695,0.002035,-0.006492,0.015066,0.032979,8.315232,17.200853,0.903344,34.173963
0.639000,-0.002730,0.002085,-0.006411,0.007292,0.047510,8.299565,16.724492,0.952855,34.425664
0.640000,-0.002640,0.002021,-0.006442,0.060665,0.038165,8.347565,16.919866,0.758447,34.543520
0.641000,-0.002641,0.002055,-0.006459,0.001701,0.049300,8.328394,17.345991,0.991795,34.771243
0.642000,-0.002736,0.002076,-0.006488,0.030656,0.033690,8.357662,17.022975,1.051455,34.778300
0.643000,-0.003332,0.001733,-0.007197,-0.016721,0.056811,8.328770,17.064545,0.971033,34.445708
0.644000,-0.003309,0.001757,-0.007245,-0.007183,0.077002,8.363654,17.209043,1.139864,34.585563
0.645000,-0.002522,0.001618,-0.006005,-0.028481,0.041184,8.340605,17.050630,0.677121,34.508586
0.646000,-0.002506,0.001638,-0.006003,0.022231,0.068157,8.352743,17.057792,1.011534,34.540447
0.647000,-0.002496,0.001607,-0.005962,0.018658,0.083493,8.345267,17.397647,0.831916,34.214491
0.648000,-0.002450,0.001615,-0.005975,0.006211,0.026419,8.351447,16.874537,0.844028,34.726460
0.649000,-0.003550,0.001842,-0.007059,-0.002707,0.029264,8.321545,16.844663,0.741884,34.597780
0.650000,-0.003532,0.001853,-0.007087,0.020439,0.033596,8.299820,17.258140,0.667625,34.176676
0.651000,-0.003506,0.001858,-0.007146,0.036685,0.029313,8.367107,16.942916,1.092738,34.545700
0.652000,-0.003488,0.001759,-0.007082,0.019367,0.062990,8.339097,16.949891,1.108547,34.542089
0.653000,-0.003492,0.001832,-0.007106,0.039739,0.048908,8.331118,17.073581,0.655075,34.369730
0.654000,-0.003552,0.001869,-0.007121,0.035251,0.087506,8.320936,17.471255,0.901298,34.333877
0.655000,-0.003490,0.001837,-0.007102,0.029221,0.037243,8.336580,17.020529,0.989027,34.688425
0.656000,-0.003536,0.001813,-0.007045,0.014027,-0.006190,8.322340,17.213759,0.835732,34.763254
0.657000,-0.003848,0.001553,-0.007579,0.033319,0.021856,8.344946,17.250997,0.880319,34.493609
0.658000,-0.003889,0.001638,-0.007605,0.016853,0.033392,8.344641,17.209704,1.173119,34.225757
0.659000,-0.003028,0.002394,-0.007770,0.026864,0.045708,8.346861,17.107466,0.960099,34.408445
0.660000,-0.003087,0.002373,-0.007775,0.017207,0.004038,8.318752,16.982874,1.169252,34.621433
0.661000,-0.003067,0.002359,-0.007796,-0.023293,0.050431,8.344447,17.499573,0.856371,34.544887
0.662000,-0.003080,0.002347,-0.007757,0.032061,0.047012,8.345894,17.153294,1.138805,34.780216
0.663000,-0.003095,0.002374,-0.007686,-0.018739,0.034955,8.297846,17.111575,0.755279,34.381598
0.664000,-0.003071,0.002402,-0.007793,0.005807,0.069689,8.348421,17.120949,1.182526,34.239937
0.665000,-0.003760,0.002882,-0.007775,0.026363,0.033404,8.306341,16.867939,1.112091,34.269423
0.666000,-0.003717,0.002844,-0.007753,0.016756,0.059431,8.334641,16.876500,1.185183,34.476061
0.667000,-0.003477,0.001917,-0.008735,-0.019005,0.039115,8.287796,17.035794,1.229861,34.313946
0.668000,-0.003464,0.001905,-0.008736,0.029170,0.023003,8.301713,16.849583,1.280156,34.563721
0.669000,-0.003444,0.001918,-0.008718,0.029431,0.048227,8.331063,17.223973,0.906374,34.498269
0.670000,-0.003471,0.001931,-0.008723,0.057117,0.049723,8.313371,16.957367,1.027622,34.679010
0.671000,-0.004034,0.002255,-0.008360,0.023373,0.031116,8.351920,17.130624,1.170728,34.646497
0.672000,-0.004061,0.002274,-0.008456,0.018551,0.044511,8.297292,16.890794,0.938455,34.432538
0.673000,-0.004018,0.002295,-0.008389,0.014104,0.035682,8.305724,17.237852,1.055272,34.543506
0.674000,-0.004021,0.002234,-0.008404,0.008382,0.045569,8.326289,17.287888,0.606913,34.402810
0.675000,-0.003724,0.001865,-0.009025,-0.015641,0.031242,8.316939,16.992691,1.014870,34.625544
0.676000,-0.003710,0.001863,-0.009036,0.016719,0.038445,8.318077,17.092218,0.713062,34.597444
0.677000,-0.003754,0.001895,-0.008998,0.003715,0.038044,8.345794,17.117070,0.683464,34.462201
0.678000,-0.003710,0.001912,-0.009013,0.018405,0.065353,8.349227,17.164383,1.284946,34.309331
0.679000,-0.003704,0.001893,-0.009017,0.042950,0.064224,8.357892,17.244475,0.759081,34.274392
0.680000,-0.003728,0.001946,-0.009025,-0.010497,0.049650,8.350943,16.858761,1.083054,34.544242
0.681000,-0.004203,0.002636,-0.009686,0.040944,0.021019,8.339632,17.031456,1.054718,34.527130
0.682000,-0.004225,0.002653,-0.009694,0.014228,0.073769,8.298403,17.113276,0.908058,34.321351
0.683000,-0.004219,0.002658,-0.009676,-0.002822,-0.000021,8.329293,17.417726,1.236355,34.825716
0.684000,-0.004224,0.002673,-0.009677,0.058317,0.035560,8.328414,16.987885,0.835196,34.439565
0.685000,-0.004192,0.002670,-0.009692,0.023742,0.034074,8.333757,17.298622,0.966556,34.414810
0.686000,-0.004198,0.002610,-0.009679,0.020534,0.019334,8.324480,17.161690,0.824731,34.258383
0.687000,-0.005228,0.002968,-0.008496,0.027561,0.055064,8.352560,17.116379,0.867151,34.516923
0.688000,-0.005237,0.002965,-0.008512,0.019340,0.043470,8.341504,16.574118,0.794674,34.510936
0.689000,-0.004095,0.002236,-0.010027,0.000565,0.023441,8.323860,16.799146,0.680976,34.527127
0.690000,-0.004049,0.002207,-0.009918,-0.013170,0.044432,8.347531,17.226367,0.794802,34.469199
0.691000,-0.004069,0.002237,-0.009966,-0.001796,0.044968,8.313691,17.045069,0.665636,34.747823
0.692000,-0.004055,0.002239,-0.009967,-0.007996,0.077608,8.306168,17.055785,0.933472,34.591639
0.693000,-0.004422,0.002325,-0.009461,-0.013313,0.040452,8.331792,16.790402,1.143893,34.722232
0.694000,-0.004424,0.002368,-0.009415,0.025918,0.076438,8.310707,17.117930,1.055716,34.457048
0.695000,-0.004468,0.002313,-0.009495,0.000781,0.068488,8.345314,17.257086,0.808132,34.513671
0.696000,-0.004427,0.002364,-0.009470,0.028558,0.024116,8.349080,17.095930,0.959231,34.725930
0.697000,-0.004474,0.002374,-0.009505,0.028602,0.039795,8.314582,17.512160,0.945530,34.610617
0.698000,-0.004410,0.002427,-0.009462,0.014538,0.069176,8.304318,16.935908,1.165504,34.420348
0.699000,-0.004426,0.002885,-0.010088,-0.003765,0.023239,8.318093,17.696320,0.644837,34.933815
0.700000,-0.004458,0.002867,-0.010079,0.012021,0.055190,8.335681,17.281249,0.750526,34.967006
0.701000,-0.004393,0.002905,-0.010031,0.013541,0.041409,8.338960,16.911312,0.906191,34.270407
0.702000,-0.004448,0.002894,-0.010013,-0.021620,0.057394,8.309713,17.061852,0.956614,34.680167
0.703000,-0.004482,0.003229,-0.009908,0.003321,0.042613,8.324857,17.559704,0.867954,33.990005
0.704000,-0.004488,0.003177,-0.009957,0.022056,0.038570,8.320543,17.214766,0.860772,34.870710
0.705000,-0.004487,0.003216,-0.009938,0.043037,0.049951,8.332469,17.083047,0.820562,34.325278
0.706000,-0.004478,0.003212,-0.009963,0.026148,0.021413,8.370230,17.209593,0.913793,34.803254
0.707000,-0.005320,0.002594,-0.010190,-0.009769,0.037873,8.320602,17.048921,1.239344,34.254649
0.708000,-0.005325,0.002590,-0.010175,0.005600,0.026386,8.310816,16.754439,1.126547,34.431114
0.709000,-0.005270,0.002579,-0.010215,0.036082,0.011210,8.346210,17.038522,0.771784,34.311509
0.710000,-0.005310,0.002594,-0.010198,0.025176,0.027777,8.337117,17.211664,0.963148,34.316432
0.711000,-0.004764,0.002697,-0.010661,0.008892,0.013216,8.304390,17.241400,1.193150,34.499769
0.712000,-0.004777,0.002713,-0.010657,0.025270,0.047547,8.331257,17.282268,0.773808,34.631989
0.713000,-0.004800,0.002644,-0.010639,0.004137,0.031497,8.319813,17.120055,0.814329,34.916370
0.714000,-0.004773,0.002644,-0.010698,-0.023217,0.036532,8.336912,17.133637,0.853019,34.524667
0.715000,-0.004881,0.003086,-0.010707,0.013347,0.070929,8.306121,16.921124,0.743977,34.434360
0.716000,-0.004863,0.003067,-0.010716,-0.001373,0.037896,8.331293,17.015020,0.811940,34.762035
0.717000,-0.004893,0.003101,-0.010680,-0.026405,0.047326,8.331385,16.940912,0.787281,34.292621
0.718000,-0.004875,0.003093,-0.010676,-0.030830,0.032778,8.310074,16.841346,1.164838,34.570852
0.719000,-0.004906,0.003088,-0.010685,0.002740,0.008109,8.334770,17.221207,1.163107,34.456959
0.720000,-0.004891,0.003107,-0.010673,0.047380,0.040393,8.282835,17.371731,0.846143,34.310130
0.721000,-0.004879,0.003052,-0.011234,0.017588,0.031083,8.304177,17.159959,0.994787,34.548827
0.722000,-0.004884,0.003079,-0.011173,0.018934,0.052707,8.312898,17.283471,0.987424,34.581653
0.723000,-0.004896,0.003085,-0.011201,-0.021367,-0.005638,8.312955,17.349683,1.018361,34.616621
0.724000,-0.004879,0.003137,-0.011244,0.008617,0.024480,8.312600,16.814501,1.683523,34.214970
0.725000,-0.004523,0.002929,-0.012121,0.023179,0.044179,8.330402,16.983614,0.857324,34.927632
0.726000,-0.004526,0.002976,-0.012103,0.028167,0.021575,8.304307,16.971697,1.052235,34.413144
0.727000,-0.004498,0.002949,-0.012117,0.001146,0.022847,8.285015,16.886913,1.077036,34.383105
0.728000,-0.004459,0.002962,-0.012122,0.000653,0.057011,8.342526,17.127175,1.087938,34.889021
0.729000,-0.005811,0.003202,-0.011797,0.022217,0.037338,8.355594,16.843894,0.937762,34.500258
0.730000,-0.005803,0.003233,-0.011825,-0.009777,0.015180,8.349048,17.087116,1.462099,34.488400
0.731000,-0.005773,0.003208,-0.011857,0.012130,0.021052,8.337507,16.601209,0.928976,34.499048
0.732000,-0.005787,0.003247,-0.011819,0.002705,0.017649,8.308929,17.040255,0.828755,34.267358
0.733000,-0.005814,0.003250,-0.011846,0.018004,0.038639,8.356962,17.502611,1.028528,34.484938
0.734000,-0.005807,0.003204,-0.011790,0.005644,0.028247,8.355407,17.496350,0.799856,34.638092
0.735000,-0.004827,0.003598,-0.012110,0.031338,0.037321,8.294901,16.845676,1.111885,34.303533
0.736000,-0.004768,0.003538,-0.012164,-0.004937,0.013103,8.327113,17.176818,1.343588,34.540169
0.737000,-0.004861,0.003559,-0.012174,0.001153,0.066639,8.294691,16.663633,0.974216,34.614793
0.738000,-0.004852,0.003548,-0.012137,-0.012044,0.039210,8.336892,17.259492,1.251260,34.816014
0.739000,-0.004856,0.002392,-0.010465,-0.040814,-0.000757,8.321063,17.060595,0.840329,34.306854
0.740000,-0.004841,0.002372,-0.010420,0.038678,0.072261,8.318020,16.981705,1.059191,34.262561
0.741000,-0.004849,0.002332,-0.010505,0.007874,0.017280,8.339146,16.907073,1.075725,34.397882
0.742000,-0.004901,0.002380,-0.010482,0.042116,0.059440,8.325793,17.156827,0.810523,34.577922
0.743000,-0.004482,0.002997,-0.010222,-0.005638,0.034241,8.354221,16.936730,0.600997,34.706701
0.744000,-0.004448,0.002919,-0.010264,0.003170,-0.002568,8.319119,16.951257,0.919543,34.389432
0.745000,-0.004465,0.002948,-0.010286,0.005595,-0.002724,8.331057,17.190112,1.031649,34.627076
0.746000,-0.004474,0.002943,-0.010245,0.021400,0.071466,8.299512,16.979232,0.957901,34.603037
0.747000,-0.004957,0.003096,-0.010813,0.025901,0.053417,8.336856,17.382680,1.026550,34.329449
0.748000,-0.004931,0.003127,-0.010781,-0.009156,0.012406,8.328338,17.136482,0.935720,34.137740
0.749000,-0.004942,0.003094,-0.010800,0.012938,0.022558,8.352423,16.729273,0.954711,34.526295
0.750000,-0.004920,0.003095,-0.010793,0.003012,-0.004388,8.321860,17.027851,1.137876,34.342762
0.751000,-0.004729,0.002588,-0.010786,0.020756,0.040652,8.333117,16.817480,0.808478,34.405494
0.752000,-0.004776,0.002554,-0.010833,0.041176,0.011238,8.317834,17.073237,0.813902,34.110402
0.753000,-0.004758,0.002536,-0.010876,0.042184,-0.005994,8.325295,16.589351,0.991318,34.305554
0.754000,-0.004752,0.002532,-0.010833,0.035789,0.058116,8.339689,16.697902,1.088009,34.820803
0.755000,-0.004776,0.002526,-0.010828,0.024808,0.012605,8.354067,17.065949,1.019346,34.576512
0.756000,-0.004750,0.002571,-0.010775,-0.013233,0.010561,8.334199,16.638407,1.138853,34.762081
0.757000,-0.004663,0.002677,-0.009922,0.001002,0.037685,8.335064,17.437819,0.883345,34.304572
0.758000,-0.004703,0.002705,-0.009916,0.046776,0.042223,8.313906,17.345582,1.063780,34.691819
0.759000,-0.004696,0.002662,-0.009890,0.024540,0.016667,8.344791,16.959084,1.019986,34.320416
0.760000,-0.004691,0.002656,-0.009854,0.012180,0.041476,8.290473,17.082637,0.900651,34.974909
0.761000,-0.004556,0.003120,-0.010009,-0.034534,0.003086,8.361580,17.189225,0.553090,34.523167
0.762000,-0.004520,0.003138,-0.010078,-0.012327,0.048089,8.313435,17.154341,0.876389,34.311072
0.763000,-0.004553,0.003154,-0.010001,0.005958,0.032383,8.359524,17.210545,0.782497,34.634446
0.764000,-0.004559,0.003151,-0.010014,0.022558,0.041010,8.352525,16.881680,0.864867,34.707849
0.765000,-0.004201,0.002517,-0.010006,-0.002017,0.054753,8.344552,17.177322,0.973806,34.517926
0.766000,-0.004126,0.002494,-0.009944,0.028675,0.030050,8.317560,17.100430,0.815283,34.231533
0.767000,-0.004118,0.002421,-0.009994,-0.006830,0.016865,8.307887,17.192544,1.262587,34.640189
0.768000,-0.004128,0.002480,-0.009957,0.018086,0.028502,8.335077,17.131763,0.735001,34.692819
0.769000,-0.004110,0.002501,-0.009975,0.020506,0.011702,8.304404,17.175443,1.114303,34.723058
0.770000,-0.004180,0.002474,-0.009958,0.006037,0.017407,8.308625,17.388159,0.753124,34.275590
0.771000,-0.003902,0.001839,-0.009729,0.044825,0.002085,8.367172,17.111076,0.790185,34.312859
0.772000,-0.003868,0.001739,-0.009787,0.016442,0.052858,8.343888,17.317520,0.773543,34.521856
0.773000,-0.004123,0.002341,-0.009486,0.023038,0.066445,8.304552,16.768067,0.980105,34.751909
0.774000,-0.004144,0.002354,-0.009403,0.007425,0.015703,8.292178,17.315991,1.169299,34.508977
0.775000,-0.004171,0.002364,-0.009423,-0.002775,0.070623,8.322880,17.296329,1.050848,34.439555
0.776000,-0.004158,0.002415,-0.009402,0.050535,0.074889,8.386773,17.155638,1.138635,34.268372
0.777000,-0.004219,0.002366,-0.009399,0.048942,0.080344,8.332935,16.877716,0.940352,34.288829
0.778000,-0.004144,0.002348,-0.009402,0.015103,0.038704,8.326380,16.843793,0.887007,34.715365
0.779000,-0.004225,0.002608,-0.008771,0.013496,0.047890,8.316985,17.269309,1.029894,34.559032
0.780000,-0.004262,0.002528,-0.008763,-0.017322,0.040019,8.312408,17.483896,0.864128,34.570791
0.781000,-0.004274,0.002466,-0.008758,-0.001446,0.029773,8.318874,16.968163,0.720009,34.752669
0.782000,-0.004237,0.002524,-0.008689,0.032798,0.029253,8.349778,17.022740,1.101901,34.477023
0.783000,-0.003759,0.002230,-0.008605,0.014551,0.030798,8.329569,17.321628,0.775932,34.748717
0.784000,-0.003736,0.002202,-0.008575,-0.015667,0.039369,8.343502,17.253647,0.622323,34.424947
0.785000,-0.003756,0.002209,-0.008603,0.030340,0.005254,8.295749,17.277958,1.283527,34.662409
0.786000,-0.003764,0.002205,-0.008557,-0.000483,0.060409,8.330834,17.004807,0.781545,34.633774
0.787000,-0.003378,0.002203,-0.008827,-0.005298,0.003162,8.312586,16.999047,0.894240,34.481460
0.788000,-0.003340,0.002191,-0.008926,-0.004849,0.051297,8.346795,17.250914,1.316191,34.722520
0.789000,-0.003354,0.002130,-0.008819,-0.010884,0.047589,8.339500,17.082795,0.794966,34.653345
0.790000,-0.003364,0.002215,-0.008886,-0.013519,0.030683,8.333251,17.401729,1.161572,34.564787
0.791000,-0.003409,0.002010,-0.007911,0.013543,-0.002147,8.329023,16.986583,1.034751,34.747240
0.792000,-0.003380,0.002007,-0.007833,0.023065,0.064168,8.312893,17.125474,0.948341,34.392439
0.793000,-0.003345,0.002035,-0.007884,-0.000780,0.028076,8.332250,17.579511,0.796642,34.335429
0.794000,-0.003328,0.002002,-0.007963,0.012158,0.044445,8.303690,17.112180,0.929399,34.722060
0.795000,-0.003376,0.002029,-0.007928,0.018187,0.017264,8.323488,17.284149,0.734377,34.379389
0.796000,-0.003374,0.001989,-0.007862,0.044609,0.004008,8.320743,16.911760,1.119479,34.607513
0.797000,-0.003262,0.002312,-0.007306,-0.015553,0.035261,8.347515,17.008757,1.010036,34.308052
0.798000,-0.003286,0.002301,-0.007355,0.013551,0.029793,8.353165,16.937184,0.717899,34.553104
0.799000,-0.003164,0.002299,-0.007393,0.016776,0.048646,8.340801,17.107454,0.778728,34.606265
0.800000,-0.003073,0.002337,-0.007359,-0.047905,0.030548,8.304640,17.283729,0.769861,34.462291
0.801000,-0.003133,0.002284,-0.007388,-0.006650,0.061801,8.318821,17.178936,0.967181,34.260869
0.802000,-0.003038,0.002335,-0.007371,0.048216,0.003656,8.304527,16.994978,0.877110,34.492411
0.803000,-0.003117,0.002272,-0.007382,0.025407,0.025131,8.332575,17.055184,1.270143,34.485115
0.804000,-0.003136,0.002290,-0.007408,0.007751,0.029113,8.320244,16.748728,0.986017,34.862041
0.805000,-0.003420,0.001910,-0.006738,0.013619,0.044897,8.358932,17.047458,0.884053,34.466579
0.806000,-0.003448,0.001901,-0.006671,0.005900,0.023992,8.315843,17.192121,0.908843,34.233407
0.807000,-0.003524,0.001748,-0.006758,0.039606,0.045820,8.288086,16.950093,0.955975,34.628623
0.808000,-0.003561,0.001740,-0.006765,-0.029227,0.015133,8.331019,16.967189,0.911364,34.534120
0.809000,-0.003537,0.001713,-0.006767,0.009265,0.042221,8.322841,16.929607,0.950748,34.615509
0.810000,-0.003489,0.001751,-0.006842,0.038103,0.047380,8.327943,16.850730,1.027457,34.315477
0.811000,-0.003503,0.001708,-0.006779,0.033005,-0.001468,8.324663,16.873051,0.840717,34.788621
0.812000,-0.003546,0.001722,-0.006799,0.012669,0.043891,8.291793,16.748742,0.879019,34.520502
0.813000,-0.002798,0.001777,-0.006848,0.004630,0.039802,8.336000,17.303977,1.343703,34.444325
0.814000,-0.002807,0.001818,-0.006856,0.033783,0.047059,8.325151,17.182956,0.950223,34.506211
0.815000,-0.002811,0.001766,-0.006910,0.023461,0.027620,8.329338,17.131624,0.663009,34.516472
0.816000,-0.002782,0.001782,-0.006930,0.025863,0.030743,8.333678,17.165750,0.802838,34.613853
0.817000,-0.002802,0.001768,-0.006826,0.029205,0.045993,8.351250,16.745844,0.986522,34.784342
0.818000,-0.002837,0.001754,-0.006838,0.056758,0.045783,8.317077,17.036660,0.780063,34.251236
0.819000,-0.002535,0.001652,-0.006151,0.020113,0.041040,8.338749,17.153946,1.147317,34.515021
0.820000,-0.002552,0.001610,-0.006188,0.039924,-0.002394,8.356904,16.989313,0.596542,34.549754
0.821000,-0.002574,0.002025,-0.005730,0.047074,0.042998,8.338318,16.945781,0.846837,34.837307
0.822000,-0.002567,0.002017,-0.005663,0.004873,0.031649,8.340452,16.731409,0.647254,34.570497
0.823000,-0.002582,0.001986,-0.005673,0.022504,0.046032,8.339015,17.004193,0.868614,34.578495
0.824000,-0.002606,0.002016,-0.005753,0.027828,0.047340,8.305723,17.127655,0.780995,34.412009
0.825000,-0.002563,0.001980,-0.005755,0.026478,0.068933,8.325841,17.087826,1.000767,34.619141
0.826000,-0.002594,0.001993,-0.005704,0.039915,0.012938,8.325778,16.965855,1.035447,34.709166
0.827000,-0.002812,0.001181,-0.006202,-0.003259,0.059221,8.359457,17.087187,0.948782,34.480719
0.828000,-0.002834,0.001200,-0.006198,0.007660,0.055000,8.359662,16.959170,0.787893,34.468683
0.829000,-0.002735,0.001173,-0.006234,0.008986,0.033979,8.341171,17.164916,0.797306,34.511617
0.830000,-0.002785,0.001205,-0.006237,-0.007349,0.033559,8.369586,17.041139,1.311119,34.665414
0.831000,-0.002520,0.001433,-0.005298,-0.000454,0.048534,8.336940,17.214091,1.145867,34.421061
0.832000,-0.002519,0.001417,-0.005249,0.006315,0.035766,8.361719,17.343155,0.999281,34.517614
0.833000,-0.002522,0.001365,-0.005330,0.020768,0.045588,8.358658,16.843836,0.891244,34.186026
0.834000,-0.002538,0.001382,-0.005283,0.003758,0.010143,8.362036,17.029993,0.857590,34.449527
0.835000,-0.002212,0.001401,-0.005621,0.012335,0.049254,8.311006,16.810741,1.104189,34.640452
0.836000,-0.002187,0.001454,-0.005584,0.017404,0.009097,8.327664,17.403246,1.288745,34.556418
0.837000,-0.002176,0.001404,-0.005613,-0.003507,0.013500,8.320266,17.274811,1.019014,34.444017
0.838000,-0.002167,0.001433,-0.005625,-0.036698,0.007790,8.342155,17.024011,1.091781,35.313938
0.839000,-0.002079,0.001184,-0.004944,0.016547,0.009501,8.337426,17.302351,1.016171,34.619604
0.840000,-0.002059,0.001230,-0.004900,-0.008183,0.045701,8.324046,17.168985,0.951314,34.672160
0.841000,-0.002103,0.001245,-0.004950,0.002960,0.029289,8.377989,17.047501,0.773845,34.619240
0.842000,-0.002084,0.001237,-0.004947,-0.005795,0.035676,8.342134,17.195953,0.940639,34.586164
0.843000,-0.002059,0.001277,-0.004948,-0.009911,-0.001058,8.314258,17.262479,0.958757,34.440372
0.844000,-0.002063,0.001222,-0.004929,0.024799,0.024175,8.321718,16.940657,0.919856,34.822220
0.845000,-0.002168,0.001588,-0.005081,0.027837,0.014794,8.324589,17.039038,1.038010,34.464029
0.846000,-0.002152,0.001500,-0.005159,-0.021066,0.037502,8.331006,16.998161,0.799368,34.545889
0.847000,-0.002147,0.001458,-0.004186,0.025489,0.007923,8.322509,16.977522,1.214144,34.505886
0.848000,-0.002154,0.001457,-0.004162,-0.016344,0.026035,8.356257,17.068509,0.934045,34.598111
0.849000,-0.002158,0.001485,-0.004184,0.002956,0.003436,8.312669,17.364268,0.768433,34.580171
0.850000,-0.002158,0.001436,-0.004208,-0.023072,0.004832,8.339908,16.774747,1.204404,34.505843
0.851000,-0.002138,0.001451,-0.004169,-0.019764,0.037239,8.326897,16.788925,0.722954,34.683503
0.852000,-0.002182,0.001425,-0.004195,-0.001330,0.035507,8.307471,16.756174,1.022347,34.444167
0.853000,-0.002283,0.001445,-0.004584,0.026331,0.016822,8.318587,17.039301,0.838907,34.343183
0.854000,-0.002329,0.001476,-0.004545,-0.000826,0.044786,8.337357,16.982862,1.078916,34.470414
0.855000,-0.002369,0.001480,-0.004521,-0.043513,0.035990,8.291200,17.157869,0.922048,34.644568
0.856000,-0.002325,0.001420,-0.004507,0.002458,0.028662,8.319279,17.156604,0.864539,34.343103
0.857000,-0.001958,0.000578,-0.004472,0.019434,0.045347,8.310782,17.260753,0.812015,34.623325
0.858000,-0.001934,0.000551,-0.004492,-0.006998,0.030085,8.295250,17.082608,0.879514,34.609596
0.859000,-0.001912,0.000525,-0.004528,-0.000291,0.057977,8.296005,17.340125,1.089242,34.551776
0.860000,-0.001923,0.000568,-0.004473,0.002464,0.018834,8.366813,17.388961,0.646182,34.312606
0.861000,-0.001557,0.001081,-0.003357,-0.001532,0.021089,8.305594,16.987054,1.242182,34.708542
0.862000,-0.001569,0.001080,-0.003387,0.009492,0.036198,8.308516,16.745840,0.884672,34.271875
0.863000,-0.001514,0.001043,-0.003364,0.029232,0.036202,8.343556,17.068659,1.142486,34.714904
0.864000,-0.001614,0.001087,-0.003390,0.002670,0.035627,8.322081,17.128046,0.886861,34.508579
0.865000,-0.001372,0.000670,-0.003373,0.038674,0.033056,8.326555,17.208025,1.420975,34.298654
0.866000,-0.001372,0.000683,-0.003328,0.000036,0.020296,8.331172,17.382463,1.015781,34.685009
0.867000,-0.001273,0.000668,-0.003364,0.025797,0.016885,8.328931,17.112009,1.239298,34.590510
0.868000,-0.001278,0.000702,-0.003334,0.012979,0.037904,8.291948,16.951323,1.055498,34.744087
0.869000,-0.001340,0.000661,-0.003354,-0.009387,0.003125,8.327041,17.076327,0.569206,34.504877
0.870000,-0.001363,0.000667,-0.003304,-0.008913,0.020648,8.302296,17.095150,0.960144,34.431575
0.871000,-0.001209,0.000767,-0.003398,0.001117,0.007977,8.341661,17.331119,0.511646,34.545150
0.872000,-0.001232,0.000737,-0.003430,0.018906,0.033663,8.320290,17.097008,1.372411,34.524277
0.873000,-0.001255,0.000760,-0.003372,-0.031852,0.021383,8.311024,17.162030,0.992923,34.545264
0.874000,-0.001254,0.000751,-0.003413,0.014216,0.043108,8.332924,17.415793,0.754685,34.398544
0.875000,-0.001354,0.000606,-0.002662,0.034694,0.019141,8.314082,17.221422,1.018329,34.472531
0.876000,-0.001359,0.000631,-0.002682,0.030149,0.033940,8.321398,17.062510,1.144917,34.620563
0.877000,-0.001346,0.000572,-0.002634,0.046449,0.042226,8.322536,16.938724,1.014649,34.517524
0.878000,-0.001349,0.000614,-0.002735,-0.004621,0.057313,8.330552,17.166688,0.906978,34.294343
0.879000,-0.000908,0.001004,-0.001883,0.009697,0.044194,8.344124,17.205560,1.074529,34.799814
0.880000,-0.000935,0.000996,-0.001903,0.020283,0.048374,8.335480,16.822409,0.955273,34.482777
0.881000,-0.000848,0.000966,-0.001882,0.020376,0.015788,8.362883,16.999621,0.671945,34.321756
0.882000,-0.000852,0.000942,-0.001914,-0.015697,0.036772,8.299423,17.128037,0.872551,34.367987
0.883000,-0.001313,0.000716,-0.002733,0.007194,0.019002,8.329116,17.351467,1.426140,34.516341
0.884000,-0.001352,0.000716,-0.002712,0.016059,0.011227,8.325785,16.786463,1.045196,34.125466
0.885000,-0.001318,0.000642,-0.002714,0.037264,0.004039,8.309157,16.815723,1.048516,34.260654
0.886000,-0.001308,0.000718,-0.002719,0.026512,0.032052,8.329426,17.018782,0.682992,34.538090
0.887000,-0.001032,0.000693,-0.002383,0.029764,0.014467,8.315906,17.292187,0.850753,34.523524
0.888000,-0.001035,0.000716,-0.002381,-0.003814,0.023448,8.353389,16.918584,0.825141,34.367109
0.889000,-0.001080,0.000748,-0.002327,-0.025163,0.006379,8.298840,17.227150,0.696503,34.463357
0.890000,-0.001099,0.000711,-0.002361,0.037397,0.018061,8.319791,17.154663,1.144100,34.612189
0.891000,-0.001105,0.000710,-0.002364,-0.023431,0.025150,8.343851,17.061690,0.859223,34.705584
0.892000,-0.001046,0.000743,-0.002374,0.014221,0.028257,8.294823,16.908581,0.804640,34.787897
0.893000,-0.000619,0.000314,-0.001777,0.002505,0.033388,8.306379,17.145052,1.045044,34.642649
0.894000,-0.000594,0.000293,-0.001788,0.022321,0.048267,8.315718,17.057359,0.691854,34.575729
0.895000,-0.000639,0.000331,-0.001767,0.023749,0.028202,8.349509,17.072109,0.803335,34.317534
0.896000,-0.000570,0.000277,-0.001755,0.050128,0.008356,8.341894,17.066644,0.707258,34.499723
0.897000,-0.000676,0.000687,-0.001615,0.035419,0.010830,8.314781,17.024715,0.945889,34.604939
0.898000,-0.000704,0.000694,-0.001564,-0.002725,0.027719,8.319192,17.195381,0.831768,34.694948
0.899000,-0.000753,0.000727,-0.001589,0.005095,0.047287,8.288150,17.033269,1.306624,34.414606
0.900000,-0.000740,0.000732,-0.001585,-0.010551,0.043892,8.337524,16.765073,1.129444,34.609402
0.901000,-0.000638,0.000506,-0.001364,-0.012262,0.041663,8.353133,17.306994,1.028491,34.978230
0.902000,-0.000630,0.000517,-0.001336,0.008090,0.010047,8.344021,17.039077,1.170410,34.426190
0.903000,-0.000625,0.000512,-0.001348,0.043818,0.012498,8.327170,17.170193,1.099457,34.687830
0.904000,-0.000599,0.000550,-0.001343,0.031052,0.032687,8.291145,17.224994,0.345253,34.514210
0.905000,-0.000527,0.000280,-0.000836,0.018009,0.010619,8.300755,16.964621,0.896020,34.472846
0.906000,-0.000496,0.000301,-0.000895,-0.025774,0.054354,8.309547,17.263725,1.007843,34.429675
0.907000,-0.000526,0.000319,-0.000858,0.015784,0.042020,8.329641,16.792528,1.264160,34.402748
0.908000,-0.000511,0.000268,-0.000890,0.015040,0.038024,8.329163,17.050206,1.380865,34.407996
0.909000,-0.000089,0.000156,-0.000563,-0.006270,0.013213,8.324261,17.022269,1.013533,34.218072
0.910000,-0.000057,0.000151,-0.000590,0.006513,0.038995,8.348592,16.743657,0.876019,34.441353
0.911000,-0.000119,0.000202,-0.000563,0.015990,0.013986,8.282397,17.101224,0.780391,34.611083
0.912000,-0.000052,0.000227,-0.000541,-0.006452,0.003225,8.311651,16.659853,0.955268,34.596868
0.913000,-0.000085,0.000211,-0.000575,0.013937,0.032036,8.363847,17.138627,0.937453,34.400263
0.914000,-0.000066,0.000170,-0.000529,0.018791,0.068830,8.340798,17.038377,1.206545,34.411994
0.915000,-0.000116,-0.000075,-0.000592,0.030943,0.023094,8.304711,17.263783,1.187914,34.193054
0.916000,-0.000135,-0.000158,-0.000582,-0.000002,0.030090,8.313712,17.050658,0.780451,34.238146
0.917000,-0.000149,-0.000081,-0.000573,-0.011135,0.038733,8.306105,17.227939,1.060008,34.578239
0.918000,-0.000148,-0.000107,-0.000594,-0.021869,0.007700,8.321652,16.866224,1.009368,34.275012
0.919000,0.000091,-0.000261,-0.000507,-0.010926,0.025727,8.338486,17.090245,0.841377,34.729917
0.920000,0.000119,-0.000292,-0.000509,0.020640,0.017001,8.300085,17.005407,1.013387,34.572431
0.921000,0.000125,-0.000312,-0.000510,-0.002548,0.043547,8.344308,17.060774,0.989138,34.585992
0.922000,0.000071,-0.000273,-0.000540,0.016177,0.054553,8.361246,16.902691,1.046482,34.693891
0.923000,0.000172,0.000206,0.000371,-0.000684,0.060303,8.321124,17.151933,0.900615,34.561064
0.924000,0.000148,0.000120,0.000448,0.029623,0.044617,8.286512,17.005296,0.945968,34.298652
0.925000,0.000168,0.000154,0.000391,-0.010426,0.005703,8.290444,17.341250,1.341723,34.391853
0.926000,0.000155,0.000148,0.000469,0.026787,0.072046,8.321182,17.226828,1.249702,34.342980
0.927000,0.000401,-0.000156,-0.000049,0.026281,0.060270,8.330579,16.659537,1.261065,34.525481
0.928000,0.000338,-0.000182,-0.000041,0.008548,0.025382,8.337218,16.975294,0.977975,34.456362
0.929000,0.000391,-0.000103,-0.000084,0.026697,0.039650,8.334998,17.645539,0.866620,34.590526
0.930000,0.000354,-0.000108,-0.000062,0.008028,-0.001780,8.344480,17.324345,1.216905,34.738610
0.931000,-0.000331,0.000042,-0.000430,-0.016843,0.042827,8.341617,16.993374,0.939564,34.108540
0.932000,-0.000292,0.000052,-0.000416,-0.013936,0.018079,8.369156,17.061028,0.975180,34.670363
0.933000,-0.000313,0.000107,-0.000410,0.007456,0.005727,8.342527,17.421288,1.105890,34.733733
0.934000,-0.000339,0.000044,-0.000451,-0.006522,-0.008398,8.336859,17.072009,1.216272,34.529613
0.935000,0.000286,0.000044,0.000001,-0.009425,0.036807,8.309991,17.295117,1.123841,34.603130
0.936000,0.000214,0.000108,0.000042,0.023318,0.034032,8.274169,16.778540,1.179494,34.600320
0.937000,0.000286,0.000088,0.000032,0.016760,0.024491,8.354945,17.210724,1.029265,34.621088
0.938000,0.000261,0.000058,0.000007,0.017026,0.045583,8.312051,17.325946,0.877560,34.617565
0.939000,0.000338,0.000078,0.000007,-0.006875,0.029820,8.319106,16.925588,1.079970,34.575884
0.940000,0.000279,0.000035,0.000063,0.036036,0.027247,8.301680,16.953804,0.986919,34.417908
0.941000,-0.000476,0.000014,0.000033,-0.007632,0.049794,8.323005,17.002540,1.037210,34.579182
0.942000,-0.000449,0.000003,0.000007,0.004605,0.051708,8.307933,16.705373,1.040211,34.469035
0.943000,-0.000461,-0.000011,-0.000006,-0.036015,0.013128,8.331260,16.995546,0.751661,34.518729
0.944000,-0.000419,-0.000001,-0.000015,0.004025,-0.001144,8.346866,16.974603,1.214146,34.190436
0.945000,-0.000074,-0.000051,0.000714,0.012353,0.038164,8.334839,16.889664,0.770026,34.577305
0.946000,-0.000045,-0.000087,0.000709,-0.017126,0.036427,8.344676,17.301384,1.065688,34.316581
0.947000,-0.000077,-0.000087,0.000722,0.032052,0.044862,8.336725,16.992683,0.812848,34.625287
0.948000,-0.000036,-0.000107,0.000673,-0.025975,0.030016,8.307089,16.988769,0.696539,34.640116
0.949000,-0.000281,0.000138,0.000749,0.034912,0.053108,8.307211,17.318754,0.934273,34.550666
0.950000,-0.000275,0.000055,0.000784,0.008130,0.035322,8.344542,16.785179,0.571943,34.171235
0.951000,-0.000293,0.000081,0.000787,-0.024731,-0.014247,8.327147,17.066760,0.909313,34.632709
0.952000,-0.000282,0.000079,0.000761,-0.041988,0.033503,8.338319,17.037294,1.158911,34.695523
0.953000,-0.000381,-0.000060,0.000552,0.033982,0.017748,8.329628,17.013254,0.775267,34.158314
0.954000,-0.000445,-0.000071,0.000546,0.022195,0.006590,8.344835,17.351567,0.786975,34.239176
0.955000,-0.000436,-0.000079,0.000520,0.014590,0.018085,8.329229,17.100403,0.681948,34.552296
0.956000,-0.000358,-0.000030,0.000478,0.006250,0.046019,8.319110,17.010597,1.146457,34.688665
0.957000,-0.000340,-0.000106,0.000547,0.013639,0.017765,8.307467,17.287954,1.008215,34.362105
0.958000,-0.000381,-0.000109,0.000535,0.012520,0.012199,8.342521,16.875634,0.866209,34.911678
0.959000,-0.000492,0.000087,0.001227,0.021002,0.014849,8.330689,17.027388,0.999429,34.820037
0.960000,-0.000458,0.000077,0.001212,-0.006461,-0.002077,8.314335,17.124448,0.824135,34.668141
0.961000,-0.000462,0.000090,0.001236,0.008045,0.040782,8.329392,16.992846,1.024027,34.626143
0.962000,-0.000513,0.000045,0.001199,0.027361,0.010479,8.318782,16.980163,1.004189,34.835733
0.963000,-0.000742,0.000184,0.002002,0.042215,-0.008682,8.317265,16.954685,1.221928,34.413715
0.964000,-0.000727,0.000204,0.002013,-0.012550,0.026310,8.317618,17.422566,0.803343,34.451603
0.965000,-0.000715,0.000145,0.002019,0.021197,0.035396,8.300051,17.365958,1.267142,34.685160
0.966000,-0.000727,0.000169,0.001971,-0.002806,0.030235,8.341287,16.866956,0.983909,34.527729
0.967000,-0.000618,0.000010,0.002076,0.058112,0.044403,8.305962,16.910504,1.102223,34.377855
0.968000,-0.000614,0.000128,0.002029,0.007161,0.033875,8.315905,16.826742,0.655644,34.857375
0.969000,-0.000628,0.000061,0.002098,0.018535,-0.015580,8.337532,16.977035,0.873548,34.328927
0.970000,-0.000595,0.000062,0.002009,-0.000554,0.028003,8.355933,17.338923,0.701881,34.295510
0.971000,-0.000614,0.000019,0.002007,-0.016385,0.035709,8.342387,17.013383,0.963580,34.654384
0.972000,-0.000591,-0.000013,0.002025,0.012487,-0.002345,8.353608,16.945228,1.265201,34.398650
0.973000,-0.000908,0.000125,0.003522,0.004789,0.019559,8.320117,16.881075,0.754932,34.378404
0.974000,-0.000882,0.000175,0.003532,0.001344,0.006189,8.329704,16.850256,1.112153,34.334684
0.975000,-0.000859,0.000150,0.003522,-0.002994,0.043708,8.336815,17.049792,0.769043,34.301239
0.976000,-0.000878,0.000152,0.003502,0.041828,0.025905,8.310181,17.288562,1.276082,34.771989
0.977000,-0.001064,0.000082,0.003337,-0.020590,0.074390,8.339729,16.791919,0.710469,34.908658
0.978000,-0.001055,0.000084,0.003307,-0.004917,0.064295,8.353724,17.026382,0.702241,34.736014
0.979000,-0.001083,0.000128,0.003328,-0.018203,0.014951,8.323710,17.088363,1.076723,34.096374
0.980000,-0.001073,0.000124,0.003310,-0.012534,0.028187,8.340734,17.012522,1.149702,34.404150
0.981000,-0.001031,0.000078,0.002155,-0.018647,0.036034,8.349940,17.313312,0.713153,34.505832
0.982000,-0.001002,0.000052,0.002201,0.017113,0.028592,8.312906,17.392286,0.745038,34.579825
0.983000,-0.000990,0.000020,0.002185,0.025796,0.006376,8.331274,17.188106,0.984292,34.479351
0.984000,-0.001006,0.000101,0.002169,0.009557,0.052796,8.314627,16.906556,1.004473,34.507749
0.985000,-0.001901,0.000167,0.003281,-0.000995,0.005042,8.335195,16.798671,1.178377,34.352204
0.986000,-0.001797,0.000208,0.003199,0.000494,0.012684,8.310916,16.803675,0.851600,34.355547
0.987000,-0.001816,0.000142,0.003235,0.019869,0.007810,8.305928,17.025627,0.726873,34.613844
0.988000,-0.001878,0.000144,0.003210,0.027112,0.026685,8.345644,17.341444,0.986512,34.249294
0.989000,-0.001272,0.000079,0.003666,0.001791,0.030001,8.329530,16.899442,1.008636,34.148600
0.990000,-0.001336,0.000049,0.003635,0.037010,0.056344,8.349632,16.837878,0.648492,34.549786
0.991000,-0.001277,0.000089,0.003686,-0.003643,0.010102,8.341719,17.491940,0.722845,34.684821
0.992000,-0.001326,-0.000018,0.003612,0.036797,0.053436,8.326641,16.966751,0.711331,34.828891
0.993000,-0.001526,0.000135,0.003888,0.023711,0.045005,8.329381,17.491492,1.044894,34.597396
0.994000,-0.001520,0.000179,0.003910,0.012913,0.031942,8.310486,17.087381,0.936861,34.593078
0.995000,-0.001571,0.000144,0.003915,-0.004801,0.015803,8.294130,17.205642,1.285750,34.426856
0.996000,-0.001520,0.000161,0.003928,0.011912,0.029116,8.341742,17.099925,0.948132,34.724859
0.997000,-0.001531,0.000118,0.003929,0.034452,0.056624,8.354980,17.537772,1.168987,34.681357
0.998000,-0.001571,0.000082,0.003849,-0.006237,0.001033,8.345146,17.250289,1.209100,34.992732
0.999000,-0.001668,0.000183,0.004075,0.036898,0.061268,8.336157,16.750681,1.080309,34.030293
1.000000,-0.001637,0.000219,0.004036,-0.031235,0.037251,8.337578,17.258663,1.070824,34.422234
1.001000,-0.001641,0.000173,0.004051,0.034273,0.058692,8.344720,16.560981,0.961760,34.570519
1.002000,-0.001639,0.000123,0.004107,-0.002818,0.009099,8.337145,17.063219,0.844682,34.354820
1.003000,-0.001320,0.000088,0.004855,-0.006955,0.059584,8.292007,17.065404,0.809785,34.683510
1.004000,-0.001272,0.000029,0.004855,0.020455,0.036270,8.322208,17.060223,0.631872,34.561637
1.005000,-0.001316,0.000030,0.004868,-0.009631,-0.011759,8.315662,17.155186,1.275723,34.706408
1.006000,-0.001325,0.000028,0.004846,-0.001339,0.052221,8.310592,16.902255,1.238570,34.260571
1.007000,-0.001373,0.000223,0.004577,0.018151,0.003734,8.336062,17.080817,1.109021,34.808629
1.008000,-0.001440,0.000228,0.004498,-0.036102,0.072029,8.323533,17.439296,1.209198,34.501288
1.009000,-0.001446,0.000226,0.004578,-0.047331,0.015293,8.308721,17.187062,1.006716,34.390936
1.010000,-0.001428,0.000257,0.004553,-0.004208,0.022401,8.313017,17.053106,1.309714,34.652105
1.011000,-0.001454,0.000104,0.005150,-0.007447,0.006377,8.342948,17.472133,0.754661,34.454112
1.012000,-0.001509,0.000089,0.005055,0.033235,0.024594,8.326022,17.155388,1.106088,34.505125
1.013000,-0.001438,0.000132,0.005080,-0.013698,0.031147,8.331015,17.229609,1.115694,34.260236
1.014000,-0.001466,0.000127,0.005140,0.004589,0.037688,8.332603,17.220544,1.169554,34.584687
1.015000,-0.002260,0.000012,0.005290,-0.012243,0.053739,8.322191,16.720914,0.909278,34.612005
1.016000,-0.002272,0.000047,0.005294,0.042799,0.038140,8.366120,16.908616,1.139359,34.668195
1.017000,-0.002200,0.000081,0.005290,0.032711,0.034225,8.311797,17.101313,0.965630,34.564799
1.018000,-0.002232,0.000022,0.005327,-0.005134,0.040373,8.329264,17.074626,0.714442,34.444778
1.019000,-0.002034,0.000202,0.006131,-0.002867,0.046405,8.327159,17.089370,1.235224,34.660972
1.020000,-0.002012,0.000166,0.006068,0.025927,0.009920,8.346531,17.359056,0.691070,34.459032
1.021000,-0.001982,0.000229,0.006079,0.019109,0.053720,8.346087,17.474945,0.818428,34.380675
1.022000,-0.002026,0.000217,0.006121,0.007292,0.026220,8.362331,17.023048,1.350189,34.398290
1.023000,-0.002057,0.000193,0.006112,0.003144,0.044629,8.318687,17.182804,1.036738,34.156134
1.024000,-0.002023,0.000229,0.006071,-0.028542,0.004771,8.334563,17.072380,0.854508,34.658289
1.025000,-0.002572,0.000114,0.005815,0.023138,0.037749,8.349485,17.410445,0.894461,34.461291
1.026000,-0.002580,0.000083,0.005780,0.016889,0.013843,8.338361,17.560480,0.823566,34.268945
1.027000,-0.002586,0.000122,0.005798,0.012419,0.017848,8.335905,17.340806,0.950702,34.582269
1.028000,-0.002609,0.000076,0.005808,0.010599,0.017232,8.322791,17.505324,0.689973,34.490033
1.029000,-0.001868,-0.000226,0.006135,0.037504,0.057260,8.330171,16.837251,1.024668,34.421148
1.030000,-0.001836,-0.000200,0.006151,0.010157,0.000503,8.361047,16.849467,1.100998,34.529675
1.031000,-0.001883,-0.000262,0.006122,0.029902,0.044545,8.280509,16.834320,0.730418,34.567718
1.032000,-0.001871,-0.000266,0.006111,0.009832,0.026803,8.340146,16.753584,1.003402,34.785754
1.033000,-0.002734,0.000357,0.006509,-0.000091,0.024671,8.338867,17.203976,0.839280,34.580543
1.034000,-0.002687,0.000378,0.006582,-0.006598,0.017745,8.330276,16.834333,0.985414,34.464729
1.035000,-0.002714,0.000361,0.006515,0.035987,0.045599,8.348062,16.875213,1.079112,34.146735
1.036000,-0.002711,0.000379,0.006572,0.010271,0.059420,8.291268,16.846990,0.753450,34.430462
1.037000,-0.002941,0.000010,0.006800,0.049771,0.072637,8.335585,17.325776,1.103833,34.548008
1.038000,-0.002960,0.000011,0.006830,0.025776,0.028457,8.322152,17.086663,0.956035,34.792012
1.039000,-0.002940,-0.000012,0.006752,-0.003323,0.028210,8.337587,16.725662,1.106724,34.429817
1.040000,-0.002949,0.000017,0.006786,0.017461,0.069232,8.328399,17.172376,1.055685,34.668991
1.041000,-0.002946,0.000075,0.007121,-0.021027,0.062305,8.301758,17.380576,0.693494,34.721436
1.042000,-0.002932,0.000088,0.007103,-0.002287,0.034603,8.334789,17.063179,0.868620,34.919551
1.043000,-0.002943,0.000074,0.007162,-0.020154,0.014046,8.296518,17.210714,0.876803,34.712170
1.044000,-0.002885,0.000050,0.007163,0.021528,0.052935,8.301740,17.066617,0.873556,34.410976
1.045000,-0.002920,0.000321,0.008117,0.029066,0.047817,8.313088,17.134165,0.838445,34.557694
1.046000,-0.002865,0.000254,0.008202,-0.030990,0.007422,8.314374,17.246377,0.977758,34.908542
1.047000,-0.002887,0.000245,0.008135,0.040072,0.026613,8.306075,17.078031,1.216125,34.715854
1.048000,-0.002879,0.000301,0.008147,0.011964,0.002854,8.336748,17.369343,1.335919,34.188440
1.049000,-0.002900,0.000291,0.008150,-0.010733,0.012161,8.333949,17.126569,0.934187,34.549248
1.050000,-0.002936,0.000247,0.008153,0.044270,0.073240,8.305409,16.998921,0.850796,34.315945
1.051000,-0.002865,0.000311,0.008167,-0.003054,0.039294,8.349945,17.094242,1.135196,34.432681
1.052000,-0.002890,0.000289,0.008125,-0.034664,0.030635,8.316554,17.012190,0.820522,34.336235
1.053000,-0.002801,0.000215,0.007449,-0.029825,0.001887,8.314928,17.029984,1.020904,34.770044
1.054000,-0.002791,0.000242,0.007504,0.010155,0.049153,8.333522,16.845811,0.948699,34.754791
1.055000,-0.002784,0.000244,0.007500,0.028074,0.029340,8.312162,16.848366,1.198423,34.443255
1.056000,-0.002801,0.000246,0.007466,0.005260,0.042802,8.347198,17.212519,0.912085,34.616210
1.057000,-0.003153,0.000459,0.008243,0.005980,0.010015,8.333145,17.385459,0.930452,34.719822
1.058000,-0.003160,0.000423,0.008246,0.018596,0.053580,8.312690,17.128371,0.802157,34.499803
1.059000,-0.003191,0.000472,0.008286,-0.004512,0.043944,8.318161,17.035360,0.681341,34.616298
1.060000,-0.003145,0.000492,0.008250,-0.000118,0.053958,8.298732,17.202207,1.109593,34.803330
1.061000,-0.002919,0.000410,0.008932,0.050408,0.016290,8.343854,17.259219,0.836644,34.452708
1.062000,-0.003010,0.000428,0.008946,0.006749,0.034089,8.321078,17.237025,1.027640,34.524458
1.063000,-0.003003,0.000468,0.008931,0.026211,0.021588,8.314824,16.906907,0.850055,34.640184
1.064000,-0.002993,0.000394,0.008935,0.045500,0.029158,8.312752,16.699579,0.501232,34.661496
1.065000,-0.003119,0.000389,0.008632,-0.021119,0.066157,8.315248,16.972637,1.042048,34.831678
1.066000,-0.003041,0.000398,0.008612,0.050504,0.036555,8.329258,16.880236,0.629865,34.474683
1.067000,-0.003132,0.000403,0.008667,0.012350,0.073169,8.282172,16.943473,0.946377,34.631598
1.068000,-0.003100,0.000422,0.008634,0.013244,0.023111,8.322080,17.138338,0.959914,34.731813
1.069000,-0.003402,0.000194,0.008402,0.011930,0.023061,8.330170,17.204613,0.915790,34.650344
1.070000,-0.003437,0.000183,0.008448,0.008442,0.001913,8.334067,16.777627,1.155410,34.532242
1.071000,-0.003759,0.000347,0.009105,0.023354,0.017438,8.364041,16.844078,0.869915,34.727865
1.072000,-0.003756,0.000273,0.009127,0.035843,0.045353,8.343150,16.927500,1.028997,34.697287
1.073000,-0.003771,0.000336,0.009115,0.009516,0.051318,8.358050,17.080100,0.783034,34.515683
1.074000,-0.003800,0.000280,0.009088,0.025200,0.016772,8.325576,16.803861,0.855171,34.314689
1.075000,-0.003760,0.000336,0.009069,0.020471,0.045131,8.324814,17.066349,0.704483,34.544084
1.076000,-0.003800,0.000296,0.009094,-0.002528,0.060151,8.304754,17.293638,1.179086,34.288080
1.077000,-0.003318,0.000279,0.009174,-0.010083,0.001418,8.307351,16.947054,1.112750,34.663669
1.078000,-0.003281,0.000285,0.009193,0.034047,0.053977,8.324883,16.956857,0.854464,34.543889
1.079000,-0.003256,0.000284,0.009190,0.018900,0.027910,8.302341,16.722181,1.049119,34.736709
1.080000,-0.003258,0.000307,0.009182,0.053616,0.055814,8.333523,17.000409,0.674215,34.800206
1.081000,-0.003825,0.000289,0.009628,-0.008371,0.023525,8.312414,17.117647,1.083921,34.273542
1.082000,-0.003846,0.000290,0.009612,0.010852,0.034277,8.319498,16.821550,1.026818,34.726042
1.083000,-0.003849,0.000327,0.009586,-0.020446,0.070986,8.331166,16.857815,0.927121,34.222296
1.084000,-0.003859,0.000297,0.009619,0.018086,0.019444,8.294880,16.940208,0.896916,34.622265
1.085000,-0.003889,0.000328,0.009614,0.007197,0.021411,8.340684,16.669676,1.200515,34.495245
1.086000,-0.003894,0.000335,0.009662,0.027144,0.043322,8.346304,17.324736,1.080439,34.692312
1.087000,-0.003741,0.000167,0.010060,0.045242,0.035725,8.348541,17.464592,0.794943,34.554211
1.088000,-0.003815,0.000079,0.010065,0.018830,-0.010481,8.323260,16.884509,0.925529,34.666854
1.089000,-0.003785,0.000105,0.010060,-0.008627,0.032466,8.310426,17.292568,0.871270,34.296020
1.090000,-0.003753,0.000089,0.010050,0.021082,0.047549,8.350645,17.089507,0.780434,34.416803
1.091000,-0.003764,0.000397,0.011100,0.041516,-0.006061,8.302199,17.204793,1.037845,34.688860
1.092000,-0.003818,0.000440,0.011104,0.067899,0.048058,8.330902,17.010408,1.138346,34.530921
1.093000,-0.003784,0.000448,0.011039,0.009504,0.026523,8.287384,17.020627,0.731947,34.125530
1.094000,-0.003777,0.000398,0.011075,-0.006720,0.025382,8.311941,16.774067,0.984824,34.353340
1.095000,-0.003926,0.000074,0.011600,-0.002946,0.079198,8.321302,16.758405,0.862181,34.582086
1.096000,-0.003954,0.000020,0.011615,0.014460,0.032460,8.338262,17.155349,0.937077,34.516464
1.097000,-0.003926,0.000085,0.011591,-0.000772,0.052681,8.335320,16.971664,1.064428,34.494130
1.098000,-0.003973,0.000079,0.011583,-0.017104,0.025335,8.322905,17.060695,1.141912,34.680763
1.099000,-0.004338,0.000004,0.010808,0.004451,0.037735,8.339175,17.039794,0.878618,34.463695
1.100000,-0.004370,0.000013,0.010767,0.019268,0.034263,8.328103,16.686009,1.152614,34.396277
1.101000,-0.004379,0.000031,0.010809,-0.034528,0.043077,8.336223,17.240075,0.948965,34.796327
1.102000,-0.004363,0.000033,0.010688,-0.011008,0.033012,8.339441,17.177445,1.116341,34.414151
1.103000,-0.004348,0.000016,0.010741,0.032466,0.037607,8.332861,16.827803,0.968700,34.158866
1.104000,-0.004320,0.000016,0.010759,0.027939,0.021099,8.334683,16.985300,0.710789,34.366463
1.105000,-0.004041,-0.000145,0.011206,-0.003675,0.049634,8.293917,17.190231,1.041707,34.497028
1.106000,-0.004004,-0.000152,0.011216,0.025319,0.027569,8.345842,17.137132,0.835105,34.995744
1.107000,-0.004041,-0.000049,0.011258,-0.006889,0.028992,8.327598,17.133452,0.825208,34.696880
1.108000,-0.004043,-0.000062,0.011216,0.017600,0.006020,8.339204,17.314436,0.789445,34.254944
1.109000,-0.004476,0.000019,0.011862,-0.028371,0.013638,8.294864,16.840388,0.809171,34.517789
1.110000,-0.004513,0.000029,0.011824,0.025550,0.035135,8.335571,16.761662,0.857303,34.488189
1.111000,-0.004494,0.000047,0.011843,0.038554,0.020657,8.338667,17.138119,1.055383,34.605615
1.112000,-0.004514,0.000079,0.011842,0.010179,0.025251,8.352723,17.420814,1.147948,34.571023
1.113000,-0.003904,0.000235,0.011051,0.050825,0.018256,8.343187,16.888572,0.806693,34.253028
1.114000,-0.003890,0.000303,0.011072,0.015278,0.033599,8.331360,17.105087,1.000343,34.700302
1.115000,-0.003880,0.000330,0.011062,0.002125,-0.045399,8.357324,17.127046,1.139234,34.735294
1.116000,-0.003894,0.000267,0.011019,-0.005170,0.021985,8.321933,16.877478,0.836042,34.526167
1.117000,-0.003942,-0.000056,0.009993,-0.006966,0.031667,8.325482,16.939528,0.888662,34.586336
1.118000,-0.003935,-0.000039,0.010003,-0.005609,0.029799,8.325709,17.051856,0.935290,34.346695
1.119000,-0.003906,-0.000045,0.009957,0.027548,-0.000273,8.310135,17.173147,1.018391,34.381403
1.120000,-0.003896,-0.000020,0.009928,0.023464,0.013822,8.308159,16.826441,1.171625,34.865102
1.121000,-0.003937,-0.000034,0.009993,-0.003063,0.024652,8.324416,17.120818,0.864620,34.729881
1.122000,-0.003901,-0.000028,0.009990,0.004606,0.005914,8.341965,17.166226,0.893397,34.714818
1.123000,-0.003837,0.000447,0.010702,0.035578,-0.011901,8.295049,16.919623,0.800584,34.598380
1.124000,-0.003836,0.000464,0.010661,0.029054,0.058243,8.283442,17.097607,1.056129,34.758238
1.125000,-0.003734,0.000318,0.010375,0.025272,0.059584,8.308985,16.776508,0.940548,34.894599
1.126000,-0.003729,0.000328,0.010356,0.040679,0.022936,8.332719,16.960666,0.795033,34.096614
1.127000,-0.003766,0.000305,0.010406,-0.005679,0.046678,8.343201,17.095196,1.044282,34.639825
1.128000,-0.003675,0.000332,0.010346,0.043598,0.055510,8.326190,16.875799,0.930436,34.571054
1.129000,-0.003729,0.000316,0.010389,0.071496,0.053667,8.337274,17.085630,0.720884,34.543274
1.130000,-0.003710,0.000288,0.010387,-0.011292,-0.004454,8.297237,16.918659,0.570861,34.659647
1.131000,-0.003616,0.000333,0.009901,-0.010014,0.054139,8.336197,17.102567,1.045229,34.425433
1.132000,-0.003636,0.000238,0.009908,-0.003559,0.023596,8.321178,17.196294,1.127818,34.866324
1.133000,-0.003639,0.000284,0.009929,0.024939,0.008584,8.333426,17.232379,1.004732,34.262573
1.134000,-0.003628,0.000250,0.009931,0.014855,0.009157,8.358396,17.055061,0.656217,34.370664
1.135000,-0.003562,0.000458,0.009165,0.002840,0.006225,8.343572,17.452230,0.732925,34.077122
1.136000,-0.003537,0.000438,0.009208,0.009895,0.034448,8.302486,17.232231,0.800065,34.676408
1.137000,-0.003537,0.000436,0.009158,0.025174,0.069988,8.300911,16.850130,0.847398,34.758852
1.138000,-0.003578,0.000431,0.009199,0.015931,0.010317,8.380609,16.820861,0.896559,34.584591
1.139000,-0.003237,0.000224,0.009401,0.033783,0.031813,8.301616,16.936992,0.975511,34.531491
1.140000,-0.003246,0.000197,0.009413,-0.011098,0.041145,8.298901,17.178541,1.283528,35.043878
1.141000,-0.003207,0.000252,0.009386,-0.018058,0.026247,8.329065,17.164823,0.907075,34.613435
1.142000,-0.003217,0.000212,0.009405,0.016444,0.017179,8.344929,17.030819,0.622249,34.519520
1.143000,-0.003240,0.000438,0.009027,-0.008601,0.038649,8.330692,17.284029,0.645605,34.338820
1.144000,-0.003252,0.000435,0.009020,0.020884,0.049820,8.317193,16.963428,0.999262,34.986462
1.145000,-0.003249,0.000496,0.009058,-0.004562,-0.008087,8.285663,16.919616,0.944831,34.529644
1.146000,-0.003246,0.000476,0.008992,0.005216,0.023762,8.304474,17.017491,0.917798,34.439007
1.147000,-0.003877,0.000265,0.008887,-0.008803,0.056617,8.344035,17.603978,1.071129,34.440671
1.148000,-0.003885,0.000282,0.008825,-0.016680,0.016944,8.334561,17.303550,0.975864,34.539722
1.149000,-0.003901,0.000273,0.008913,-0.003875,0.009524,8.319554,17.040459,0.877952,34.293532
1.150000,-0.003854,0.000253,0.008810,0.030747,0.049620,8.311544,16.753083,0.997258,34.491569
1.151000,-0.003354,0.000071,0.008443,0.018041,0.025640,8.306044,17.244572,0.754126,34.317054
1.152000,-0.003331,0.000068,0.008454,0.002763,0.000249,8.349826,17.225070,0.868410,34.693446
1.153000,-0.003275,0.000069,0.008487,0.040057,0.017434,8.313286,17.081986,1.286763,34.674186
1.154000,-0.003300,0.000062,0.008478,0.030017,0.050207,8.303903,17.154485,1.078895,34.476017
1.155000,-0.003322,0.000139,0.008459,0.005766,0.024468,8.310832,16.759033,0.994057,34.902655
1.156000,-0.003287,0.000074,0.008499,0.016534,0.011514,8.315480,16.634288,1.014644,34.232838
1.157000,-0.002868,-0.000069,0.008327,0.006707,-0.004423,8.284907,17.071074,0.939323,34.672490
1.158000,-0.002899,-0.000026,0.008256,0.027267,0.010650,8.369422,17.116060,1.188386,34.753320
1.159000,-0.002875,-0.000048,0.008296,0.048511,0.015340,8.373539,17.037689,1.134365,34.468350
1.160000,-0.002897,0.000023,0.008345,0.027656,0.012516,8.274313,16.982176,0.691247,34.781369
1.161000,-0.003019,-0.000012,0.007468,0.022626,0.026133,8.335072,17.017792,0.456525,34.633047
1.162000,-0.002993,-0.000028,0.007465,0.004136,0.002411,8.317763,16.991985,0.865277,34.483533
1.163000,-0.002997,-0.000034,0.007474,0.022999,0.018304,8.319106,17.010768,1.448092,34.848951
1.164000,-0.003069,-0.000001,0.007524,-0.021888,0.027263,8.303952,17.210314,0.968827,34.746086
1.165000,-0.003081,0.000248,0.008346,0.027269,0.010595,8.320411,17.122556,1.079263,34.636175
1.166000,-0.003094,0.000182,0.008361,0.052381,0.019189,8.317490,17.100339,1.102984,34.447689
1.167000,-0.003077,0.000211,0.008328,0.020552,-0.010655,8.351595,17.086874,0.732879,34.362195
1.168000,-0.003134,0.000170,0.008379,0.028783,0.035892,8.258277,16.588356,1.009280,34.669583
1.169000,-0.002264,-0.000079,0.007699,0.003511,-0.000369,8.349040,17.284735,0.708714,34.613404
1.170000,-0.002281,-0.000089,0.007708,0.029967,0.033101,8.302114,17.075495,1.062987,34.403153
1.171000,-0.002326,-0.000085,0.007766,0.038875,0.019969,8.362778,17.010853,0.621380,34.390535
1.172000,-0.002352,-0.000096,0.007693,0.014095,0.035456,8.317092,17.076249,0.954001,34.203859
1.173000,-0.002742,0.000108,0.007028,0.037113,0.037482,8.355468,16.977121,0.951122,34.799927
1.174000,-0.002751,0.000103,0.007054,0.012322,0.024241,8.338374,16.912862,1.014431,34.420475
1.175000,-0.002700,0.000102,0.007053,0.037829,0.045668,8.329161,16.989780,0.750730,34.327470
1.176000,-0.002714,0.000083,0.007027,-0.028709,0.041483,8.297363,16.984192,1.121486,34.383223
1.177000,-0.002741,0.000044,0.007000,0.009445,0.022785,8.297785,16.900208,0.959652,34.529681
1.178000,-0.002740,0.000083,0.007065,0.016249,0.068536,8.320070,17.062522,0.968076,34.334180
1.179000,-0.002358,0.000407,0.007210,0.024178,0.072576,8.343767,16.902483,1.108943,34.500576
1.180000,-0.002365,0.000398,0.007176,-0.004272,0.029834,8.336068,17.190562,1.154547,34.691637
1.181000,-0.002322,0.000397,0.007148,0.037639,0.049514,8.270521,16.811749,0.896076,34.729232
1.182000,-0.002355,0.000426,0.007174,-0.008541,0.023601,8.305901,17.176349,0.953749,34.212849
1.183000,-0.002999,0.000303,0.006037,-0.065889,0.010356,8.326300,16.956857,0.931456,34.254019
1.184000,-0.002997,0.000249,0.006046,-0.001874,0.004859,8.327209,17.228527,0.895231,34.147344
1.185000,-0.002983,0.000296,0.006056,0.015634,0.015487,8.354033,16.966461,0.862514,34.503723
1.186000,-0.003001,0.000286,0.006064,0.009876,0.007336,8.303698,17.349115,1.028909,34.265689
1.187000,-0.002327,0.000259,0.006383,0.004416,0.047341,8.309764,16.788649,0.865868,34.553075
1.188000,-0.002355,0.000235,0.006354,0.020723,0.026776,8.366565,17.266796,1.250352,34.872508
1.189000,-0.002304,0.000290,0.006345,0.016574,0.010770,8.341221,16.990381,1.096931,34.610775
1.190000,-0.002388,0.000274,0.006423,0.024229,0.016823,8.302902,16.865451,0.552976,34.556546
1.191000,-0.002025,0.000033,0.005572,0.019510,0.026092,8.295793,16.787548,0.752482,34.396848
1.192000,-0.002004,-0.000038,0.005587,0.013833,0.011949,8.295812,17.117749,1.163072,34.531242
1.193000,-0.002024,0.000023,0.005540,0.001601,0.050645,8.350733,16.971790,0.517681,34.617098
1.194000,-0.002007,0.000010,0.005559,0.027791,0.030187,8.338387,17.081116,0.810115,34.753447
1.195000,-0.001932,0.000335,0.005319,0.010686,0.002459,8.308114,16.846190,0.783907,34.481594
1.196000,-0.001901,0.000371,0.005317,-0.003549,0.052982,8.348084,16.967290,1.021797,34.618184
1.197000,-0.001932,0.000323,0.005302,-0.013084,0.025784,8.318255,17.278065,1.012303,34.506589
1.198000,-0.001920,0.000300,0.005360,0.005560,0.013882,8.354718,17.010114,1.003078,34.492161
1.199000,-0.001884,0.000206,0.005347,0.008304,0.029033,8.330895,17.084677,1.013400,34.555525
1.200000,-0.001860,0.000191,0.005354,-0.012041,0.026847,8.347794,17.135028,0.762671,34.788866
1.201000,-0.001871,0.000179,0.005331,0.038377,0.001496,8.295751,16.862365,0.999501,34.435243
1.202000,-0.001839,0.000261,0.005354,0.009932,0.046991,8.333624,17.284089,1.084985,34.528454
1.203000,-0.001908,0.000229,0.005357,0.022395,-0.002820,8.314839,17.375091,0.878463,34.698718
1.204000,-0.001855,0.000239,0.005343,-0.035608,0.021719,8.282733,16.935649,0.992427,34.349216
1.205000,-0.001945,0.000064,0.004440,0.035546,0.055927,8.329209,17.079314,0.904354,34.698124
1.206000,-0.001932,0.000084,0.004508,-0.021826,0.032134,8.363861,16.946339,1.506210,34.262600
1.207000,-0.001975,0.000097,0.004549,0.018265,0.048436,8.316590,17.120443,0.969408,34.632538
1.208000,-0.001936,0.000079,0.004505,-0.008896,0.023095,8.287522,16.976271,0.960394,34.420130
1.209000,-0.001611,0.000307,0.004083,0.054322,0.027326,8.343851,17.436428,0.791326,34.500365
1.210000,-0.001691,0.000320,0.004076,-0.000640,-0.006620,8.355123,16.947752,0.759377,34.258962
1.211000,-0.001632,0.000382,0.004088,-0.014004,0.031514,8.335307,17.205017,0.783798,34.375322
1.212000,-0.001675,0.000398,0.004064,0.010151,0.008645,8.323355,16.889971,0.971931,34.533081
1.213000,-0.001339,-0.000178,0.004586,-0.010497,0.040770,8.337897,17.080598,0.766481,34.612755
1.214000,-0.001296,-0.000066,0.004509,0.008230,0.012982,8.368865,16.947941,0.926555,34.501984
1.215000,-0.001280,-0.000128,0.004567,-0.017593,-0.006716,8.324719,16.750258,1.303764,34.639640
1.216000,-0.001364,-0.000089,0.004568,0.003460,0.046550,8.339401,17.110280,0.977904,34.924297
1.217000,-0.001392,0.000034,0.004048,0.009258,0.034495,8.336095,17.294589,0.979848,34.392445
1.218000,-0.001407,0.000003,0.004021,0.051079,0.029502,8.312639,16.969502,0.565127,34.457955
1.219000,-0.001365,0.000047,0.004052,0.012664,-0.028423,8.325714,17.203077,1.034485,34.647613
1.220000,-0.001380,0.000011,0.004078,0.030701,0.036511,8.332393,16.976284,1.018453,34.687695
1.221000,-0.001533,0.000001,0.003045,0.021752,0.046601,8.355111,16.646537,0.970831,34.929841
1.222000,-0.001518,0.000077,0.003019,0.017683,0.017967,8.279722,17.019422,0.426230,34.372352
1.223000,-0.001542,0.000057,0.003035,0.028384,0.034717,8.329451,16.725994,0.789752,34.293095
1.224000,-0.001495,0.000057,0.003002,-0.005214,0.043776,8.321185,17.254911,1.061843,34.594999
1.225000,-0.001520,0.000019,0.002985,0.007965,0.023172,8.335443,17.311819,0.802825,34.543093
1.226000,-0.001525,0.000058,0.003027,-0.014503,0.035631,8.311836,17.498345,1.024398,34.641204
1.227000,-0.001076,0.000089,0.003472,-0.005171,0.042128,8.306308,16.927705,0.831286,34.335703
1.228000,-0.001044,0.000115,0.003420,0.026470,0.026313,8.293136,17.399412,0.611244,34.705047
1.229000,-0.001083,0.000171,0.003417,0.036168,0.030515,8.334320,17.187529,0.602446,34.749028
1.230000,-0.001007,0.000133,0.003464,0.028964,0.054481,8.330426,17.025730,0.656768,34.599160
1.231000,-0.001479,0.000189,0.003278,0.021099,0.031721,8.319459,16.917110,0.871652,34.431509
1.232000,-0.001471,0.000172,0.003250,-0.023279,0.028557,8.354178,16.906195,0.682070,34.682464
1.233000,-0.001435,0.000139,0.003255,0.020411,0.002687,8.348503,17.138149,0.961130,34.458783
1.234000,-0.001486,0.000174,0.003242,0.002407,-0.017987,8.346898,17.085439,0.768995,34.383830
1.235000,-0.001478,0.000157,0.003211,-0.010418,0.060091,8.349516,17.405040,1.081101,34.420796
1.236000,-0.001485,0.000131,0.003207,0.004050,0.033434,8.375249,16.787304,0.582853,34.406790
1.237000,-0.000940,-0.000114,0.002776,0.028809,0.028965,8.384630,17.096305,0.933298,34.557542
1.238000,-0.000929,-0.000178,0.002726,0.011016,0.035886,8.307494,17.139951,0.710363,34.819444
1.239000,-0.000890,-0.000154,0.002781,-0.025124,0.018342,8.327147,17.037539,0.967129,34.402544
1.240000,-0.000965,-0.000123,0.002747,0.015286,-0.004492,8.339694,17.135583,1.310383,34.338364
1.241000,-0.001362,-0.000058,0.002856,-0.008097,0.036399,8.345224,16.860650,0.743583,34.464782
1.242000,-0.001405,-0.000055,0.002834,0.000672,0.004677,8.357499,16.975129,0.709550,34.519399
1.243000,-0.001368,0.000011,0.002906,0.026249,0.027164,8.355982,17.376347,0.881076,34.510388
1.244000,-0.001360,-0.000061,0.002816,0.010326,0.011575,8.306174,17.141657,1.034615,34.793529
1.245000,-0.000886,-0.000114,0.001415,0.006475,0.039641,8.354396,17.121838,0.909269,34.337942
1.246000,-0.000868,-0.000154,0.001405,0.009123,0.048534,8.322052,17.218156,0.747021,34.360296
1.247000,-0.000882,-0.000149,0.001410,-0.007110,-0.002277,8.316164,17.112812,1.206648,34.668921
1.248000,-0.000865,-0.000167,0.001447,-0.016930,0.064577,8.335230,17.068379,0.720497,34.822208
1.249000,-0.000893,-0.000081,0.002332,0.006724,0.058771,8.300113,17.064713,0.853622,34.635920
1.250000,-0.000890,-0.000081,0.002326,0.005887,0.064362,8.323468,16.989298,0.764387,34.402370
1.251000,-0.000867,-0.000080,0.002319,0.057991,0.039873,8.352705,16.948514,0.692189,34.290278
1.252000,-0.000906,-0.000099,0.002336,0.035570,0.024056,8.316528,17.262893,1.038165,34.370447
1.253000,-0.000735,-0.000139,0.002187,0.006326,0.004116,8.325042,17.246788,0.968832,34.466581
1.254000,-0.000751,-0.000132,0.002205,0.008566,0.058072,8.338335,16.839475,0.974955,34.888338
1.255000,-0.000725,-0.000154,0.002217,0.056297,-0.019543,8.301831,17.078452,1.101503,34.488171
1.256000,-0.000744,-0.000136,0.002186,0.001492,0.054091,8.324162,17.253248,0.880100,34.065557
1.257000,-0.000295,-0.000099,0.001348,-0.020940,0.019050,8.302223,16.936607,0.934482,34.737532
1.258000,-0.000223,-0.000085,0.001332,-0.019444,0.064295,8.319282,17.046084,0.914708,34.415816
1.259000,-0.000311,-0.000090,0.001370,0.012150,0.022112,8.321301,17.376382,1.198043,34.398674
1.260000,-0.000317,-0.000089,0.001286,-0.008293,0.017720,8.333172,16.783517,0.560722,34.645206
1.261000,-0.000384,-0.000302,0.000379,0.037266,0.043084,8.301790,17.101723,0.758249,34.581324
1.262000,-0.000288,-0.000264,0.000320,0.028596,0.033563,8.313775,16.838650,1.061990,34.455295
1.263000,-0.000340,-0.000274,0.000398,0.012336,0.035512,8.327321,16.867339,0.838112,34.451599
1.264000,-0.000370,-0.000271,0.000358,0.018350,0.006568,8.366556,17.146027,1.133433,34.743586
1.265000,-0.000171,0.000177,0.001229,-0.030238,0.035618,8.333767,17.106445,0.872701,34.419393
1.266000,-0.000194,0.000148,0.001253,0.021627,0.009680,8.349948,16.735065,0.905031,34.364997
1.267000,-0.000238,0.000170,0.001262,0.006484,0.000042,8.304296,17.310399,0.870030,34.672884
1.268000,-0.000180,0.000198,0.001241,0.011174,-0.008234,8.362678,16.982714,0.778532,34.645473
1.269000,-0.000159,0.000208,0.001253,0.029809,0.060794,8.361083,17.129155,0.970710,34.510893
1.270000,-0.000164,0.000205,0.001229,0.001560,0.006425,8.272377,17.227742,1.032822,34.109587
1.271000,0.000067,-0.000045,0.000358,0.000465,0.059558,8.309679,17.026063,1.104092,34.332544
1.272000,0.000133,-0.000082,0.000320,0.004424,0.012772,8.333933,16.749615,0.881852,34.629286
1.273000,0.000115,-0.000058,0.000291,0.034590,-0.007082,8.299195,16.986952,1.157676,34.884147
1.274000,0.000113,-0.000105,0.000315,0.038634,0.038737,8.321142,16.704790,0.834597,34.089351
1.275000,0.000094,0.000229,0.000137,0.043078,-0.003570,8.345149,17.203009,0.777592,34.437298
1.276000,0.000048,0.000180,0.000220,0.007278,0.036185,8.278237,17.296841,0.652641,34.224657
1.277000,0.000045,0.000165,0.000216,0.003395,0.038811,8.325095,16.636879,1.153334,34.728991
1.278000,0.000049,0.000196,0.000133,0.033963,0.048591,8.307043,17.019022,0.662870,34.689669
1.279000,0.000328,0.000030,0.000173,0.025265,0.003940,8.327461,17.606343,0.863150,34.297230
1.280000,0.000356,0.000073,0.000192,0.021879,0.007115,8.342240,17.314854,0.690380,34.458336
1.281000,0.000315,0.000071,0.000209,-0.001542,0.012251,8.340621,16.567269,0.850136,34.282710
1.282000,0.000362,0.000006,0.000181,-0.008210,0.006080,8.347366,17.318150,0.720507,34.679216
1.283000,0.000138,-0.000062,-0.000316,0.010836,-0.005359,8.343625,17.055412,0.932725,34.629590
1.284000,0.000140,-0.000066,-0.000344,0.000449,-0.004328,8.275814,17.065332,0.783775,34.372539
1.285000,0.000127,-0.000027,-0.000350,0.026865,0.006624,8.301291,17.173690,0.542202,34.852288
1.286000,0.000131,-0.000054,-0.000291,0.021541,0.040212,8.310501,17.101029,0.843588,34.580242
1.287000,0.000122,-0.000034,-0.000303,0.027051,0.065400,8.353526,16.961138,0.874293,34.310945
1.288000,0.000126,-0.000065,-0.000346,0.032666,0.030299,8.317425,17.147897,0.893485,34.565095
1.289000,0.000136,0.000035,0.000241,0.007522,0.032852,8.301015,17.361369,0.753661,34.504148
1.290000,0.000149,-0.000020,0.000205,-0.006866,-0.004824,8.331114,16.757477,1.014560,34.525610
1.291000,0.000202,0.000006,0.000211,0.010323,0.010805,8.342917,17.078973,0.878272,34.417588
1.292000,0.000181,0.000019,0.000247,-0.012416,0.010056,8.342111,17.556505,0.915948,34.586106
1.293000,-0.000171,0.000093,0.000064,0.027375,0.007919,8.331051,16.856110,1.079094,34.505196
